"subid","prepost","response","rt","stim1","stim2","task","trial_index","trial_type","time_elapsed","internal_node_id"
"wouter","pre","4","3458.3999998569","stimuli/object_03.png","stimuli/object_01.png","pre_judgment","3","html-slider-response","13841","0.0-2.0-1.0"
"wouter","pre","10","1745.0999999046","stimuli/object_01.png","stimuli/object_04.png","pre_judgment","5","html-slider-response","16589","0.0-2.0-1.1"
"wouter","pre","7","1525.2000000477","stimuli/object_01.png","stimuli/object_02.png","pre_judgment","7","html-slider-response","19117","0.0-2.0-1.2"
"wouter","post","23","8237.2999999523","stimuli/object_10.png","stimuli/object_09.png","post_judgment","46","html-slider-response","326298","0.0-19.0-1.0"
"wouter","post","14","1817.2000000477","stimuli/object_09.png","stimuli/object_08.png","post_judgment","48","html-slider-response","329121","0.0-19.0-1.1"
"wouter","post","70","1898","stimuli/object_10.png","stimuli/object_08.png","post_judgment","50","html-slider-response","332023","0.0-19.0-1.2"
"atabk_test","pre","83","22910.5","stimuli/object_04.png","stimuli/object_01.png","pre_judgment","3","html-slider-response","27582","0.0-2.0-1.0"
"atabk_test","pre","7","3426.5","stimuli/object_02.png","stimuli/object_01.png","pre_judgment","5","html-slider-response","32014","0.0-2.0-1.1"
"atabk_test","pre","6","3798.5","stimuli/object_01.png","stimuli/object_03.png","pre_judgment","7","html-slider-response","36817","0.0-2.0-1.2"
"atabk_full_test","pre","12","4087.5","stimuli/object_01.png","stimuli/object_03.png","pre_judgment","11","html-slider-response","37507","0.0-5.0-1.0"
"atabk_full_test","pre","13","1733.099999994","stimuli/object_01.png","stimuli/object_04.png","pre_judgment","13","html-slider-response","40251","0.0-5.0-1.1"
"atabk_full_test","pre","10","2395.3000000119","stimuli/object_02.png","stimuli/object_01.png","pre_judgment","15","html-slider-response","43652","0.0-5.0-1.2"
"atabk_full_test","pre","16","2788.7000000179","stimuli/object_07.png","stimuli/object_10.png","pre_judgment","11","html-slider-response","24484","0.0-5.0-1.0"
"atabk_full_test","pre","12","1545.900000006","stimuli/object_01.png","stimuli/object_06.png","pre_judgment","13","html-slider-response","27036","0.0-5.0-1.1"
"atabk_full_test","pre","16","1628","stimuli/object_04.png","stimuli/object_01.png","pre_judgment","15","html-slider-response","29668","0.0-5.0-1.2"
"atabk_full_test","pre","19","1872.599999994","stimuli/object_10.png","stimuli/object_06.png","pre_judgment","17","html-slider-response","32548","0.0-5.0-1.3"
"atabk_full_test","pre","11","2422.2999999821","stimuli/object_07.png","stimuli/object_05.png","pre_judgment","19","html-slider-response","35981","0.0-5.0-1.4"
"atabk_full_test","pre","10","2680.6999999881","stimuli/object_02.png","stimuli/object_07.png","pre_judgment","21","html-slider-response","39668","0.0-5.0-1.5"
"atabk_full_test","pre","53","2611.099999994","stimuli/object_06.png","stimuli/object_04.png","pre_judgment","23","html-slider-response","43285","0.0-5.0-1.6"
"atabk_full_test","pre","12","3168","stimuli/object_06.png","stimuli/object_03.png","pre_judgment","25","html-slider-response","47460","0.0-5.0-1.7"
"atabk_full_test","pre","8","2242.8000000119","stimuli/object_03.png","stimuli/object_08.png","pre_judgment","27","html-slider-response","50708","0.0-5.0-1.8"
"atabk_full_test","pre","9","1701","stimuli/object_05.png","stimuli/object_03.png","pre_judgment","29","html-slider-response","53414","0.0-5.0-1.9"
"atabk_full_test","pre","10","1450.5","stimuli/object_01.png","stimuli/object_05.png","pre_judgment","31","html-slider-response","55870","0.0-5.0-1.10"
"atabk_full_test","pre","14","1666.099999994","stimuli/object_09.png","stimuli/object_02.png","pre_judgment","33","html-slider-response","58543","0.0-5.0-1.11"
"atabk_full_test","pre","11","1649.599999994","stimuli/object_04.png","stimuli/object_09.png","pre_judgment","35","html-slider-response","61201","0.0-5.0-1.12"
"atabk_full_test","pre","14","1619.8999999762","stimuli/object_03.png","stimuli/object_01.png","pre_judgment","37","html-slider-response","63826","0.0-5.0-1.13"
"atabk_full_test","pre","14","1821.900000006","stimuli/object_02.png","stimuli/object_10.png","pre_judgment","39","html-slider-response","66657","0.0-5.0-1.14"
"atabk_full_test","pre","4","1579.6999999881","stimuli/object_04.png","stimuli/object_05.png","pre_judgment","41","html-slider-response","69242","0.0-5.0-1.15"
"atabk_full_test","pre","1","1852","stimuli/object_02.png","stimuli/object_08.png","pre_judgment","43","html-slider-response","72099","0.0-5.0-1.16"
"atabk_full_test","pre","1","4714","stimuli/object_08.png","stimuli/object_05.png","pre_judgment","45","html-slider-response","77822","0.0-5.0-1.17"
"atabk_full_test","pre","8","3216","stimuli/object_05.png","stimuli/object_10.png","pre_judgment","47","html-slider-response","82047","0.0-5.0-1.18"
"atabk_full_test","pre","2","1926.2000000179","stimuli/object_08.png","stimuli/object_10.png","pre_judgment","49","html-slider-response","84983","0.0-5.0-1.19"
"atabk_full_test","pre","43","2786.6999999881","stimuli/object_04.png","stimuli/object_02.png","pre_judgment","51","html-slider-response","88777","0.0-5.0-1.20"
"atabk_full_test","pre","3","1504.599999994","stimuli/object_05.png","stimuli/object_02.png","pre_judgment","53","html-slider-response","91290","0.0-5.0-1.21"
"atabk_full_test","pre","94","2020.099999994","stimuli/object_04.png","stimuli/object_03.png","pre_judgment","55","html-slider-response","94314","0.0-5.0-1.22"
"atabk_full_test","pre","5","2452.3999999762","stimuli/object_05.png","stimuli/object_06.png","pre_judgment","57","html-slider-response","97773","0.0-5.0-1.23"
"atabk_full_test","pre","4","2540.099999994","stimuli/object_09.png","stimuli/object_01.png","pre_judgment","59","html-slider-response","101317","0.0-5.0-1.24"
"atabk_full_test","pre","5","1795.7999999821","stimuli/object_01.png","stimuli/object_10.png","pre_judgment","61","html-slider-response","104117","0.0-5.0-1.25"
"atabk_full_test","pre","5","1847.6999999881","stimuli/object_07.png","stimuli/object_01.png","pre_judgment","63","html-slider-response","106974","0.0-5.0-1.26"
"atabk_full_test","pre","5","2368.599999994","stimuli/object_06.png","stimuli/object_02.png","pre_judgment","65","html-slider-response","110351","0.0-5.0-1.27"
"atabk_full_test","pre","4","2436.900000006","stimuli/object_09.png","stimuli/object_10.png","pre_judgment","67","html-slider-response","113793","0.0-5.0-1.28"
"atabk_full_test","pre","4","1756.6999999881","stimuli/object_03.png","stimuli/object_10.png","pre_judgment","69","html-slider-response","116554","0.0-5.0-1.29"
"atabk_full_test","pre","4","2345.5","stimuli/object_06.png","stimuli/object_09.png","pre_judgment","71","html-slider-response","119906","0.0-5.0-1.30"
"atabk_full_test","pre","5","2151","stimuli/object_09.png","stimuli/object_08.png","pre_judgment","73","html-slider-response","123068","0.0-5.0-1.31"
"atabk_full_test","pre","4","1809.7000000179","stimuli/object_07.png","stimuli/object_08.png","pre_judgment","75","html-slider-response","125884","0.0-5.0-1.32"
"atabk_full_test","pre","4","2772.099999994","stimuli/object_03.png","stimuli/object_09.png","pre_judgment","77","html-slider-response","129662","0.0-5.0-1.33"
"atabk_full_test","pre","5","9520.1999999881","stimuli/object_02.png","stimuli/object_01.png","pre_judgment","79","html-slider-response","140191","0.0-5.0-1.34"
"atabk_full_test","pre","3","2522.3999999762","stimuli/object_03.png","stimuli/object_07.png","pre_judgment","81","html-slider-response","143721","0.0-5.0-1.35"
"atabk_full_test","pre","18","2953.6999999881","stimuli/object_04.png","stimuli/object_08.png","pre_judgment","83","html-slider-response","147682","0.0-5.0-1.36"
"atabk_full_test","pre","11","1508.2999999821","stimuli/object_05.png","stimuli/object_09.png","pre_judgment","85","html-slider-response","150194","0.0-5.0-1.37"
"atabk_full_test","pre","72","1482.099999994","stimuli/object_02.png","stimuli/object_03.png","pre_judgment","87","html-slider-response","152683","0.0-5.0-1.38"
"atabk_full_test","pre","15","2480.5","stimuli/object_08.png","stimuli/object_06.png","pre_judgment","89","html-slider-response","156171","0.0-5.0-1.39"
"atabk_full_test","pre","6","1741.5","stimuli/object_04.png","stimuli/object_10.png","pre_judgment","91","html-slider-response","158916","0.0-5.0-1.40"
"atabk_full_test","pre","6","2184.3000000119","stimuli/object_04.png","stimuli/object_07.png","pre_judgment","93","html-slider-response","162110","0.0-5.0-1.41"
"atabk_full_test","pre","12","1831.7999999821","stimuli/object_09.png","stimuli/object_07.png","pre_judgment","95","html-slider-response","164951","0.0-5.0-1.42"
"atabk_full_test","pre","5","1969.2999999821","stimuli/object_08.png","stimuli/object_01.png","pre_judgment","97","html-slider-response","167927","0.0-5.0-1.43"
"atabk_full_test","pre","10","2340.3999999762","stimuli/object_06.png","stimuli/object_07.png","pre_judgment","99","html-slider-response","171273","0.0-5.0-1.44"
"atabk_full_test","post","81","5407.6999999881","stimuli/object_10.png","stimuli/object_07.png","post_judgment","391","html-slider-response","5261868","0.0-22.0-1.0"
"atabk_full_test","post","81","1673.099999994","stimuli/object_01.png","stimuli/object_07.png","post_judgment","393","html-slider-response","5264549","0.0-22.0-1.1"
"atabk_full_test","post","7","2741.599999994","stimuli/object_05.png","stimuli/object_04.png","post_judgment","395","html-slider-response","5268299","0.0-22.0-1.2"
"atabk_full_test","post","58","1722.6000000238","stimuli/object_08.png","stimuli/object_01.png","post_judgment","397","html-slider-response","5271028","0.0-22.0-1.3"
"atabk_full_test","post","69","1482.7000000179","stimuli/object_06.png","stimuli/object_09.png","post_judgment","399","html-slider-response","5273515","0.0-22.0-1.4"
"atabk_full_test","post","68","1882.5","stimuli/object_08.png","stimuli/object_05.png","post_judgment","401","html-slider-response","5276403","0.0-22.0-1.5"
"atabk_full_test","post","71","1871.900000006","stimuli/object_10.png","stimuli/object_02.png","post_judgment","403","html-slider-response","5279283","0.0-22.0-1.6"
"atabk_full_test","post","67","1815.8000000119","stimuli/object_08.png","stimuli/object_03.png","post_judgment","405","html-slider-response","5282106","0.0-22.0-1.7"
"atabk_full_test","post","70","3190","stimuli/object_08.png","stimuli/object_02.png","post_judgment","407","html-slider-response","5286306","0.0-22.0-1.8"
"atabk_full_test","post","66","3989.7999999821","stimuli/object_10.png","stimuli/object_03.png","post_judgment","409","html-slider-response","5291304","0.0-22.0-1.9"
"atabk_full_test","post","17","3241.3999999762","stimuli/object_03.png","stimuli/object_07.png","post_judgment","411","html-slider-response","5295552","0.0-22.0-1.10"
"atabk_full_test","post","8","1734.2999999821","stimuli/object_01.png","stimuli/object_10.png","post_judgment","413","html-slider-response","5298296","0.0-22.0-1.11"
"atabk_full_test","post","4","1498.5","stimuli/object_04.png","stimuli/object_06.png","post_judgment","415","html-slider-response","5300800","0.0-22.0-1.12"
"atabk_full_test","post","5","1455.599999994","stimuli/object_02.png","stimuli/object_04.png","post_judgment","417","html-slider-response","5303261","0.0-22.0-1.13"
"atabk_full_test","post","7","1777.900000006","stimuli/object_09.png","stimuli/object_05.png","post_judgment","419","html-slider-response","5306048","0.0-22.0-1.14"
"atabk_full_test","post","83","1230","stimuli/object_06.png","stimuli/object_08.png","post_judgment","421","html-slider-response","5308287","0.0-22.0-1.15"
"atabk_full_test","post","23","1258.8000000119","stimuli/object_07.png","stimuli/object_06.png","post_judgment","423","html-slider-response","5310551","0.0-22.0-1.16"
"atabk_full_test","post","58","2363.099999994","stimuli/object_04.png","stimuli/object_10.png","post_judgment","425","html-slider-response","5313919","0.0-22.0-1.17"
"atabk_full_test","post","23","1210.5","stimuli/object_02.png","stimuli/object_09.png","post_judgment","427","html-slider-response","5316133","0.0-22.0-1.18"
"atabk_full_test","post","72","2138.7000000179","stimuli/object_05.png","stimuli/object_03.png","post_judgment","429","html-slider-response","5319278","0.0-22.0-1.19"
"atabk_full_test","post","22","2903.7000000179","stimuli/object_05.png","stimuli/object_10.png","post_judgment","431","html-slider-response","5323190","0.0-22.0-1.20"
"atabk_full_test","post","71","1080.8000000119","stimuli/object_08.png","stimuli/object_10.png","post_judgment","433","html-slider-response","5325277","0.0-22.0-1.21"
"atabk_full_test","post","21","1818.1999999881","stimuli/object_04.png","stimuli/object_07.png","post_judgment","435","html-slider-response","5328101","0.0-22.0-1.22"
"atabk_full_test","post","70","3000.599999994","stimuli/object_06.png","stimuli/object_03.png","post_judgment","437","html-slider-response","5332110","0.0-22.0-1.23"
"atabk_full_test","post","18","2250.400000006","stimuli/object_03.png","stimuli/object_09.png","post_judgment","439","html-slider-response","5335366","0.0-22.0-1.24"
"atabk_full_test","post","18","3885.5","stimuli/object_10.png","stimuli/object_09.png","post_judgment","441","html-slider-response","5340257","0.0-22.0-1.25"
"atabk_full_test","post","66","3434.5","stimuli/object_01.png","stimuli/object_05.png","post_judgment","443","html-slider-response","5344700","0.0-22.0-1.26"
"atabk_full_test","post","77","1394","stimuli/object_09.png","stimuli/object_07.png","post_judgment","445","html-slider-response","5347099","0.0-22.0-1.27"
"atabk_full_test","post","85","1406","stimuli/object_08.png","stimuli/object_07.png","post_judgment","447","html-slider-response","5349507","0.0-22.0-1.28"
"atabk_full_test","post","12","3296.900000006","stimuli/object_01.png","stimuli/object_03.png","post_judgment","449","html-slider-response","5353807","0.0-22.0-1.29"
"atabk_full_test","post","65","2832","stimuli/object_08.png","stimuli/object_04.png","post_judgment","451","html-slider-response","5357648","0.0-22.0-1.30"
"atabk_full_test","post","12","3895.900000006","stimuli/object_08.png","stimuli/object_09.png","post_judgment","453","html-slider-response","5362552","0.0-22.0-1.31"
"atabk_full_test","post","12","3402.400000006","stimuli/object_05.png","stimuli/object_07.png","post_judgment","455","html-slider-response","5366963","0.0-22.0-1.32"
"atabk_full_test","post","65","2357.6999999881","stimuli/object_10.png","stimuli/object_06.png","post_judgment","457","html-slider-response","5370328","0.0-22.0-1.33"
"atabk_full_test","post","69","1618.099999994","stimuli/object_09.png","stimuli/object_04.png","post_judgment","459","html-slider-response","5372952","0.0-22.0-1.34"
"atabk_full_test","post","18","2299.1000000238","stimuli/object_02.png","stimuli/object_05.png","post_judgment","461","html-slider-response","5376256","0.0-22.0-1.35"
"atabk_full_test","post","73","1802.099999994","stimuli/object_02.png","stimuli/object_01.png","post_judgment","463","html-slider-response","5379065","0.0-22.0-1.36"
"atabk_full_test","post","17","1737.1999999881","stimuli/object_06.png","stimuli/object_01.png","post_judgment","465","html-slider-response","5381808","0.0-22.0-1.37"
"atabk_full_test","post","73","2631.599999994","stimuli/object_02.png","stimuli/object_07.png","post_judgment","467","html-slider-response","5385448","0.0-22.0-1.38"
"atabk_full_test","post","67","5571.5","stimuli/object_03.png","stimuli/object_02.png","post_judgment","469","html-slider-response","5392028","0.0-22.0-1.39"
"atabk_full_test","post","12","2206","stimuli/object_09.png","stimuli/object_01.png","post_judgment","471","html-slider-response","5395245","0.0-22.0-1.40"
"atabk_full_test","post","33","2193.3999999762","stimuli/object_05.png","stimuli/object_06.png","post_judgment","473","html-slider-response","5398444","0.0-22.0-1.41"
"atabk_full_test","post","70","1924.8000000119","stimuli/object_04.png","stimuli/object_03.png","post_judgment","475","html-slider-response","5401378","0.0-22.0-1.42"
"atabk_full_test","post","26","1115.2000000179","stimuli/object_04.png","stimuli/object_01.png","post_judgment","477","html-slider-response","5403501","0.0-22.0-1.43"
"atabk_full_test","post","19","2769.099999994","stimuli/object_06.png","stimuli/object_02.png","post_judgment","479","html-slider-response","5407276","0.0-22.0-1.44"
"abkara_demo_test","pre","18","1685.1000003815","stimuli/object_01.png","stimuli/object_02.png","pre_judgment","11","html-slider-response","20775","0.0-5.0-1.0"
"abkara_demo_test","pre","65","1203","stimuli/object_03.png","stimuli/object_01.png","pre_judgment","13","html-slider-response","22979","0.0-5.0-1.1"
"abkara_demo_test","pre","30","1214.1999998093","stimuli/object_09.png","stimuli/object_10.png","pre_judgment","15","html-slider-response","25195","0.0-5.0-1.2"
"Practice","pre","0","6571","stimuli/object_08.png","stimuli/object_09.png","pre_judgment","11","html-slider-response","165652","0.0-5.0-1.0"
"Practice","pre","0","2229","stimuli/object_06.png","stimuli/object_07.png","pre_judgment","13","html-slider-response","168888","0.0-5.0-1.1"
"Practice","pre","0","2044","stimuli/object_01.png","stimuli/object_06.png","pre_judgment","15","html-slider-response","171941","0.0-5.0-1.2"
"Practice","pre","50","9514","stimuli/object_08.png","stimuli/object_07.png","pre_judgment","17","html-slider-response","182462","0.0-5.0-1.3"
"Practice","pre","1","1670","stimuli/object_04.png","stimuli/object_02.png","pre_judgment","19","html-slider-response","185138","0.0-5.0-1.4"
"Practice","pre","50","2067","stimuli/object_01.png","stimuli/object_02.png","pre_judgment","21","html-slider-response","188214","0.0-5.0-1.5"
"Practice","pre","0","2692","stimuli/object_01.png","stimuli/object_09.png","pre_judgment","23","html-slider-response","191909","0.0-5.0-1.6"
"Practice","pre","0","1958","stimuli/object_10.png","stimuli/object_06.png","pre_judgment","25","html-slider-response","194872","0.0-5.0-1.7"
"Practice","pre","0","1989","stimuli/object_03.png","stimuli/object_10.png","pre_judgment","27","html-slider-response","197867","0.0-5.0-1.8"
"Practice","pre","0","2515","stimuli/object_05.png","stimuli/object_06.png","pre_judgment","29","html-slider-response","201391","0.0-5.0-1.9"
"Practice","pre","1","2060","stimuli/object_02.png","stimuli/object_09.png","pre_judgment","31","html-slider-response","204455","0.0-5.0-1.10"
"Practice","pre","0","2472","stimuli/object_05.png","stimuli/object_09.png","pre_judgment","33","html-slider-response","207937","0.0-5.0-1.11"
"Practice","pre","0","2975","stimuli/object_09.png","stimuli/object_07.png","pre_judgment","35","html-slider-response","211920","0.0-5.0-1.12"
"Practice","pre","0","2424","stimuli/object_01.png","stimuli/object_10.png","pre_judgment","37","html-slider-response","215350","0.0-5.0-1.13"
"Practice","pre","0","3064","stimuli/object_03.png","stimuli/object_05.png","pre_judgment","39","html-slider-response","219428","0.0-5.0-1.14"
"Practice","pre","0","2422","stimuli/object_04.png","stimuli/object_01.png","pre_judgment","41","html-slider-response","222856","0.0-5.0-1.15"
"Practice","pre","8","1972","stimuli/object_08.png","stimuli/object_01.png","pre_judgment","43","html-slider-response","225836","0.0-5.0-1.16"
"Practice","pre","5","3255","stimuli/object_09.png","stimuli/object_03.png","pre_judgment","45","html-slider-response","230099","0.0-5.0-1.17"
"Practice","pre","10","2132","stimuli/object_02.png","stimuli/object_03.png","pre_judgment","47","html-slider-response","233246","0.0-5.0-1.18"
"Practice","pre","6","3041","stimuli/object_09.png","stimuli/object_06.png","pre_judgment","49","html-slider-response","237293","0.0-5.0-1.19"
"Practice","pre","6","2297","stimuli/object_04.png","stimuli/object_07.png","pre_judgment","51","html-slider-response","240593","0.0-5.0-1.20"
"Practice","pre","9","2304","stimuli/object_10.png","stimuli/object_07.png","pre_judgment","53","html-slider-response","243906","0.0-5.0-1.21"
"Practice","pre","12","2051","stimuli/object_04.png","stimuli/object_08.png","pre_judgment","55","html-slider-response","246964","0.0-5.0-1.22"
"Practice","pre","21","2066","stimuli/object_07.png","stimuli/object_05.png","pre_judgment","57","html-slider-response","250038","0.0-5.0-1.23"
"Practice","pre","23","2895","stimuli/object_05.png","stimuli/object_10.png","pre_judgment","59","html-slider-response","253940","0.0-5.0-1.24"
"Practice","pre","34","3172","stimuli/object_06.png","stimuli/object_04.png","pre_judgment","61","html-slider-response","258123","0.0-5.0-1.25"
"Practice","pre","25","1890","stimuli/object_05.png","stimuli/object_02.png","pre_judgment","63","html-slider-response","261020","0.0-5.0-1.26"
"Practice","pre","24","2741","stimuli/object_05.png","stimuli/object_04.png","pre_judgment","65","html-slider-response","264772","0.0-5.0-1.27"
"Practice","pre","27","2210","stimuli/object_02.png","stimuli/object_10.png","pre_judgment","67","html-slider-response","267985","0.0-5.0-1.28"
"Practice","pre","31","2228","stimuli/object_10.png","stimuli/object_08.png","pre_judgment","69","html-slider-response","271219","0.0-5.0-1.29"
"Practice","pre","25","2188","stimuli/object_04.png","stimuli/object_10.png","pre_judgment","71","html-slider-response","274415","0.0-5.0-1.30"
"Practice","pre","24","1868","stimuli/object_05.png","stimuli/object_01.png","pre_judgment","73","html-slider-response","277291","0.0-5.0-1.31"
"Practice","pre","23","2582","stimuli/object_07.png","stimuli/object_02.png","pre_judgment","75","html-slider-response","280884","0.0-5.0-1.32"
"Practice","pre","49","1798","stimuli/object_05.png","stimuli/object_08.png","pre_judgment","77","html-slider-response","283689","0.0-5.0-1.33"
"Practice","pre","48","2396","stimuli/object_02.png","stimuli/object_06.png","pre_judgment","79","html-slider-response","287097","0.0-5.0-1.34"
"Practice","pre","45","2185","stimuli/object_01.png","stimuli/object_07.png","pre_judgment","81","html-slider-response","290284","0.0-5.0-1.35"
"Practice","pre","41","1924","stimuli/object_03.png","stimuli/object_06.png","pre_judgment","83","html-slider-response","293214","0.0-5.0-1.36"
"Practice","pre","52","1952","stimuli/object_10.png","stimuli/object_09.png","pre_judgment","85","html-slider-response","296171","0.0-5.0-1.37"
"Practice","pre","47","2501","stimuli/object_04.png","stimuli/object_09.png","pre_judgment","87","html-slider-response","299680","0.0-5.0-1.38"
"Practice","pre","43","1657","stimuli/object_07.png","stimuli/object_03.png","pre_judgment","89","html-slider-response","302343","0.0-5.0-1.39"
"Practice","pre","45","3901","stimuli/object_08.png","stimuli/object_06.png","pre_judgment","91","html-slider-response","307251","0.0-5.0-1.40"
"Practice","pre","44","1855","stimuli/object_04.png","stimuli/object_03.png","pre_judgment","93","html-slider-response","310110","0.0-5.0-1.41"
"Practice","pre","39","2557","stimuli/object_01.png","stimuli/object_03.png","pre_judgment","95","html-slider-response","313676","0.0-5.0-1.42"
"Practice","pre","49","2569","stimuli/object_03.png","stimuli/object_08.png","pre_judgment","97","html-slider-response","317258","0.0-5.0-1.43"
"Practice","pre","49","2476","stimuli/object_08.png","stimuli/object_02.png","pre_judgment","99","html-slider-response","320743","0.0-5.0-1.44"
"Practice","post","46","3171","stimuli/object_09.png","stimuli/object_03.png","post_judgment","399","html-slider-response","3639414","0.0-22.0-1.0"
"Practice","post","1","2278","stimuli/object_04.png","stimuli/object_07.png","post_judgment","401","html-slider-response","3642701","0.0-22.0-1.1"
"Practice","post","1","2381","stimuli/object_09.png","stimuli/object_05.png","post_judgment","403","html-slider-response","3646091","0.0-22.0-1.2"
"Practice","post","5","1923","stimuli/object_07.png","stimuli/object_08.png","post_judgment","405","html-slider-response","3649025","0.0-22.0-1.3"
"Practice","post","8","1954","stimuli/object_09.png","stimuli/object_08.png","post_judgment","407","html-slider-response","3651983","0.0-22.0-1.4"
"Practice","post","12","2712","stimuli/object_01.png","stimuli/object_09.png","post_judgment","409","html-slider-response","3655704","0.0-22.0-1.5"
"Practice","post","50","5512","stimuli/object_06.png","stimuli/object_09.png","post_judgment","411","html-slider-response","3662222","0.0-22.0-1.6"
"Practice","post","34","2467","stimuli/object_05.png","stimuli/object_02.png","post_judgment","413","html-slider-response","3665695","0.0-22.0-1.7"
"Practice","post","31","2382","stimuli/object_04.png","stimuli/object_02.png","post_judgment","415","html-slider-response","3669091","0.0-22.0-1.8"
"Practice","post","32","1819","stimuli/object_05.png","stimuli/object_04.png","post_judgment","417","html-slider-response","3671916","0.0-22.0-1.9"
"Practice","post","32","2978","stimuli/object_03.png","stimuli/object_07.png","post_judgment","419","html-slider-response","3675907","0.0-22.0-1.10"
"Practice","post","34","1958","stimuli/object_05.png","stimuli/object_10.png","post_judgment","421","html-slider-response","3678871","0.0-22.0-1.11"
"Practice","post","38","1812","stimuli/object_01.png","stimuli/object_02.png","post_judgment","423","html-slider-response","3681690","0.0-22.0-1.12"
"Practice","post","44","2305","stimuli/object_03.png","stimuli/object_01.png","post_judgment","425","html-slider-response","3685004","0.0-22.0-1.13"
"Practice","post","42","1716","stimuli/object_01.png","stimuli/object_07.png","post_judgment","427","html-slider-response","3687726","0.0-22.0-1.14"
"Practice","post","41","1686","stimuli/object_08.png","stimuli/object_01.png","post_judgment","429","html-slider-response","3690425","0.0-22.0-1.15"
"Practice","post","41","1807","stimuli/object_04.png","stimuli/object_08.png","post_judgment","431","html-slider-response","3693245","0.0-22.0-1.16"
"Practice","post","43","2316","stimuli/object_02.png","stimuli/object_09.png","post_judgment","433","html-slider-response","3696575","0.0-22.0-1.17"
"Practice","post","45","1924","stimuli/object_10.png","stimuli/object_08.png","post_judgment","435","html-slider-response","3699507","0.0-22.0-1.18"
"Practice","post","47","2532","stimuli/object_08.png","stimuli/object_05.png","post_judgment","437","html-slider-response","3703046","0.0-22.0-1.19"
"Practice","post","43","1840","stimuli/object_02.png","stimuli/object_10.png","post_judgment","439","html-slider-response","3705897","0.0-22.0-1.20"
"Practice","post","50","2643","stimuli/object_05.png","stimuli/object_06.png","post_judgment","441","html-slider-response","3709550","0.0-22.0-1.21"
"Practice","post","41","1828","stimuli/object_05.png","stimuli/object_07.png","post_judgment","443","html-slider-response","3712385","0.0-22.0-1.22"
"Practice","post","46","2433","stimuli/object_10.png","stimuli/object_01.png","post_judgment","445","html-slider-response","3715829","0.0-22.0-1.23"
"Practice","post","43","2421","stimuli/object_05.png","stimuli/object_03.png","post_judgment","447","html-slider-response","3719257","0.0-22.0-1.24"
"Practice","post","41","2143","stimuli/object_10.png","stimuli/object_04.png","post_judgment","449","html-slider-response","3722410","0.0-22.0-1.25"
"Practice","post","42","2037","stimuli/object_01.png","stimuli/object_04.png","post_judgment","451","html-slider-response","3725454","0.0-22.0-1.26"
"Practice","post","43","2339","stimuli/object_03.png","stimuli/object_04.png","post_judgment","453","html-slider-response","3728798","0.0-22.0-1.27"
"Practice","post","43","3578","stimuli/object_09.png","stimuli/object_07.png","post_judgment","455","html-slider-response","3733384","0.0-22.0-1.28"
"Practice","post","43","2152","stimuli/object_09.png","stimuli/object_10.png","post_judgment","457","html-slider-response","3736549","0.0-22.0-1.29"
"Practice","post","42","2198","stimuli/object_06.png","stimuli/object_04.png","post_judgment","459","html-slider-response","3739754","0.0-22.0-1.30"
"Practice","post","44","1883","stimuli/object_10.png","stimuli/object_06.png","post_judgment","461","html-slider-response","3742648","0.0-22.0-1.31"
"Practice","post","45","2557","stimuli/object_02.png","stimuli/object_07.png","post_judgment","463","html-slider-response","3746213","0.0-22.0-1.32"
"Practice","post","46","2434","stimuli/object_06.png","stimuli/object_02.png","post_judgment","465","html-slider-response","3749659","0.0-22.0-1.33"
"Practice","post","47","2573","stimuli/object_06.png","stimuli/object_07.png","post_judgment","467","html-slider-response","3753238","0.0-22.0-1.34"
"Practice","post","46","2029","stimuli/object_09.png","stimuli/object_04.png","post_judgment","469","html-slider-response","3756272","0.0-22.0-1.35"
"Practice","post","47","3361","stimuli/object_08.png","stimuli/object_02.png","post_judgment","471","html-slider-response","3760645","0.0-22.0-1.36"
"Practice","post","46","2401","stimuli/object_03.png","stimuli/object_10.png","post_judgment","473","html-slider-response","3764054","0.0-22.0-1.37"
"Practice","post","48","2843","stimuli/object_03.png","stimuli/object_06.png","post_judgment","475","html-slider-response","3767907","0.0-22.0-1.38"
"Practice","post","48","2249","stimuli/object_03.png","stimuli/object_08.png","post_judgment","477","html-slider-response","3771159","0.0-22.0-1.39"
"Practice","post","49","2810","stimuli/object_02.png","stimuli/object_03.png","post_judgment","479","html-slider-response","3774983","0.0-22.0-1.40"
"Practice","post","53","1830","stimuli/object_06.png","stimuli/object_01.png","post_judgment","481","html-slider-response","3777822","0.0-22.0-1.41"
"Practice","post","49","3027","stimuli/object_01.png","stimuli/object_05.png","post_judgment","483","html-slider-response","3781858","0.0-22.0-1.42"
"Practice","post","47","2724","stimuli/object_10.png","stimuli/object_07.png","post_judgment","485","html-slider-response","3785596","0.0-22.0-1.43"
"Practice","post","45","2282","stimuli/object_08.png","stimuli/object_06.png","post_judgment","487","html-slider-response","3788883","0.0-22.0-1.44"
"8201","pre","0","7854","stimuli/object_10.png","stimuli/object_07.png","pre_judgment","11","html-slider-response","143290","0.0-5.0-1.0"
"8201","pre","0","6232","stimuli/object_07.png","stimuli/object_04.png","pre_judgment","13","html-slider-response","150529","0.0-5.0-1.1"
"8201","pre","12","11033","stimuli/object_05.png","stimuli/object_08.png","pre_judgment","15","html-slider-response","162569","0.0-5.0-1.2"
"8201","pre","0","8665","stimuli/object_05.png","stimuli/object_04.png","pre_judgment","17","html-slider-response","172240","0.0-5.0-1.3"
"8201","pre","0","3505","stimuli/object_03.png","stimuli/object_02.png","pre_judgment","19","html-slider-response","176753","0.0-5.0-1.4"
"8201","pre","4","4876","stimuli/object_10.png","stimuli/object_02.png","pre_judgment","21","html-slider-response","182639","0.0-5.0-1.5"
"8201","pre","0","3739","stimuli/object_02.png","stimuli/object_07.png","pre_judgment","23","html-slider-response","187384","0.0-5.0-1.6"
"8201","pre","18","8981","stimuli/object_10.png","stimuli/object_08.png","pre_judgment","25","html-slider-response","197374","0.0-5.0-1.7"
"8201","pre","6","6447","stimuli/object_02.png","stimuli/object_06.png","pre_judgment","27","html-slider-response","204831","0.0-5.0-1.8"
"8201","pre","10","7539","stimuli/object_07.png","stimuli/object_03.png","pre_judgment","29","html-slider-response","213381","0.0-5.0-1.9"
"8201","pre","46","5310","stimuli/object_06.png","stimuli/object_01.png","pre_judgment","31","html-slider-response","219701","0.0-5.0-1.10"
"8201","pre","0","4525","stimuli/object_02.png","stimuli/object_05.png","pre_judgment","33","html-slider-response","225236","0.0-5.0-1.11"
"8201","pre","13","6012","stimuli/object_01.png","stimuli/object_04.png","pre_judgment","35","html-slider-response","232252","0.0-5.0-1.12"
"8201","pre","0","3581","stimuli/object_06.png","stimuli/object_08.png","pre_judgment","37","html-slider-response","236844","0.0-5.0-1.13"
"8201","pre","68","6681","stimuli/object_08.png","stimuli/object_03.png","pre_judgment","39","html-slider-response","244532","0.0-5.0-1.14"
"8201","pre","0","3399","stimuli/object_09.png","stimuli/object_07.png","pre_judgment","41","html-slider-response","248939","0.0-5.0-1.15"
"8201","pre","11","6389","stimuli/object_09.png","stimuli/object_02.png","pre_judgment","43","html-slider-response","256339","0.0-5.0-1.16"
"8201","pre","92","5005","stimuli/object_04.png","stimuli/object_08.png","pre_judgment","45","html-slider-response","262354","0.0-5.0-1.17"
"8201","pre","0","3290","stimuli/object_09.png","stimuli/object_06.png","pre_judgment","47","html-slider-response","266650","0.0-5.0-1.18"
"8201","pre","12","6368","stimuli/object_10.png","stimuli/object_01.png","pre_judgment","49","html-slider-response","274025","0.0-5.0-1.19"
"8201","pre","13","4725","stimuli/object_06.png","stimuli/object_10.png","pre_judgment","51","html-slider-response","279761","0.0-5.0-1.20"
"8201","pre","0","2706","stimuli/object_05.png","stimuli/object_07.png","pre_judgment","53","html-slider-response","283473","0.0-5.0-1.21"
"8201","pre","0","2853","stimuli/object_05.png","stimuli/object_01.png","pre_judgment","55","html-slider-response","287328","0.0-5.0-1.22"
"8201","pre","8","5239","stimuli/object_03.png","stimuli/object_06.png","pre_judgment","57","html-slider-response","293576","0.0-5.0-1.23"
"8201","pre","44","4341","stimuli/object_02.png","stimuli/object_01.png","pre_judgment","59","html-slider-response","298927","0.0-5.0-1.24"
"8201","pre","0","4167","stimuli/object_06.png","stimuli/object_05.png","pre_judgment","61","html-slider-response","304103","0.0-5.0-1.25"
"8201","pre","15","6796","stimuli/object_10.png","stimuli/object_09.png","pre_judgment","63","html-slider-response","311911","0.0-5.0-1.26"
"8201","pre","95","5723","stimuli/object_05.png","stimuli/object_09.png","pre_judgment","65","html-slider-response","318638","0.0-5.0-1.27"
"8201","pre","0","2721","stimuli/object_06.png","stimuli/object_07.png","pre_judgment","67","html-slider-response","322366","0.0-5.0-1.28"
"8201","pre","13","5760","stimuli/object_05.png","stimuli/object_10.png","pre_judgment","69","html-slider-response","329134","0.0-5.0-1.29"
"8201","pre","0","2805","stimuli/object_10.png","stimuli/object_04.png","pre_judgment","71","html-slider-response","332948","0.0-5.0-1.30"
"8201","pre","27","5333","stimuli/object_07.png","stimuli/object_01.png","pre_judgment","73","html-slider-response","339285","0.0-5.0-1.31"
"8201","pre","13","5672","stimuli/object_09.png","stimuli/object_08.png","pre_judgment","75","html-slider-response","345964","0.0-5.0-1.32"
"8201","pre","0","2968","stimuli/object_04.png","stimuli/object_02.png","pre_judgment","77","html-slider-response","349940","0.0-5.0-1.33"
"8201","pre","18","5339","stimuli/object_03.png","stimuli/object_05.png","pre_judgment","79","html-slider-response","356291","0.0-5.0-1.34"
"8201","pre","0","2989","stimuli/object_01.png","stimuli/object_03.png","pre_judgment","81","html-slider-response","360291","0.0-5.0-1.35"
"8201","pre","0","5501","stimuli/object_03.png","stimuli/object_04.png","pre_judgment","83","html-slider-response","366803","0.0-5.0-1.36"
"8201","pre","32","5991","stimuli/object_08.png","stimuli/object_07.png","pre_judgment","85","html-slider-response","373802","0.0-5.0-1.37"
"8201","pre","15","5072","stimuli/object_08.png","stimuli/object_02.png","pre_judgment","87","html-slider-response","379882","0.0-5.0-1.38"
"8201","pre","0","2895","stimuli/object_03.png","stimuli/object_10.png","pre_judgment","89","html-slider-response","383786","0.0-5.0-1.39"
"8201","pre","0","5124","stimuli/object_09.png","stimuli/object_04.png","pre_judgment","91","html-slider-response","389912","0.0-5.0-1.40"
"8201","pre","0","4593","stimuli/object_09.png","stimuli/object_01.png","pre_judgment","93","html-slider-response","395513","0.0-5.0-1.41"
"8201","pre","35","7842","stimuli/object_04.png","stimuli/object_06.png","pre_judgment","95","html-slider-response","404360","0.0-5.0-1.42"
"8201","pre","0","4295","stimuli/object_03.png","stimuli/object_09.png","pre_judgment","97","html-slider-response","409664","0.0-5.0-1.43"
"8201","pre","0","3155","stimuli/object_01.png","stimuli/object_08.png","pre_judgment","99","html-slider-response","413823","0.0-5.0-1.44"
"8201","post","52","12055","stimuli/object_03.png","stimuli/object_02.png","post_judgment","403","html-slider-response","3611151","0.0-22.0-1.0"
"8201","post","50","5172","stimuli/object_08.png","stimuli/object_01.png","post_judgment","405","html-slider-response","3617327","0.0-22.0-1.1"
"8201","post","100","13582","stimuli/object_09.png","stimuli/object_08.png","post_judgment","407","html-slider-response","3631918","0.0-22.0-1.2"
"8201","post","50","6392","stimuli/object_08.png","stimuli/object_10.png","post_judgment","409","html-slider-response","3639318","0.0-22.0-1.3"
"8201","post","49","11921","stimuli/object_07.png","stimuli/object_02.png","post_judgment","411","html-slider-response","3652245","0.0-22.0-1.4"
"8201","post","100","6351","stimuli/object_01.png","stimuli/object_02.png","post_judgment","413","html-slider-response","3659604","0.0-22.0-1.5"
"8201","post","100","4974","stimuli/object_03.png","stimuli/object_05.png","post_judgment","415","html-slider-response","3665587","0.0-22.0-1.6"
"8201","post","100","4971","stimuli/object_08.png","stimuli/object_05.png","post_judgment","417","html-slider-response","3671563","0.0-22.0-1.7"
"8201","post","0","5574","stimuli/object_03.png","stimuli/object_04.png","post_judgment","419","html-slider-response","3678146","0.0-22.0-1.8"
"8201","post","0","4443","stimuli/object_04.png","stimuli/object_01.png","post_judgment","421","html-slider-response","3683594","0.0-22.0-1.9"
"8201","post","100","5745","stimuli/object_09.png","stimuli/object_02.png","post_judgment","423","html-slider-response","3690345","0.0-22.0-1.10"
"8201","post","100","6579","stimuli/object_09.png","stimuli/object_06.png","post_judgment","425","html-slider-response","3697930","0.0-22.0-1.11"
"8201","post","49","5117","stimuli/object_05.png","stimuli/object_06.png","post_judgment","427","html-slider-response","3704057","0.0-22.0-1.12"
"8201","post","100","11933","stimuli/object_10.png","stimuli/object_02.png","post_judgment","429","html-slider-response","3716992","0.0-22.0-1.13"
"8201","post","100","4969","stimuli/object_10.png","stimuli/object_01.png","post_judgment","431","html-slider-response","3722967","0.0-22.0-1.14"
"8201","post","49","5541","stimuli/object_07.png","stimuli/object_10.png","post_judgment","433","html-slider-response","3729519","0.0-22.0-1.15"
"8201","post","51","9846","stimuli/object_03.png","stimuli/object_10.png","post_judgment","435","html-slider-response","3740374","0.0-22.0-1.16"
"8201","post","100","4236","stimuli/object_03.png","stimuli/object_08.png","post_judgment","437","html-slider-response","3745614","0.0-22.0-1.17"
"8201","post","0","4140","stimuli/object_07.png","stimuli/object_08.png","post_judgment","439","html-slider-response","3750757","0.0-22.0-1.18"
"8201","post","50","9031","stimuli/object_06.png","stimuli/object_03.png","post_judgment","441","html-slider-response","3760796","0.0-22.0-1.19"
"8201","post","100","9572","stimuli/object_03.png","stimuli/object_09.png","post_judgment","443","html-slider-response","3771419","0.0-22.0-1.20"
"8201","post","49","9719","stimuli/object_05.png","stimuli/object_04.png","post_judgment","445","html-slider-response","3782146","0.0-22.0-1.21"
"8201","post","49","10942","stimuli/object_04.png","stimuli/object_09.png","post_judgment","447","html-slider-response","3794098","0.0-22.0-1.22"
"8201","post","100","16999","stimuli/object_06.png","stimuli/object_10.png","post_judgment","449","html-slider-response","3812105","0.0-22.0-1.23"
"8201","post","100","4261","stimuli/object_05.png","stimuli/object_09.png","post_judgment","451","html-slider-response","3817376","0.0-22.0-1.24"
"8201","post","50","5808","stimuli/object_07.png","stimuli/object_04.png","post_judgment","453","html-slider-response","3824192","0.0-22.0-1.25"
"8201","post","50","5692","stimuli/object_09.png","stimuli/object_01.png","post_judgment","455","html-slider-response","3830895","0.0-22.0-1.26"
"8201","post","48","4344","stimuli/object_05.png","stimuli/object_02.png","post_judgment","457","html-slider-response","3836247","0.0-22.0-1.27"
"8201","post","0","3770","stimuli/object_04.png","stimuli/object_10.png","post_judgment","459","html-slider-response","3841023","0.0-22.0-1.28"
"8201","post","0","3294","stimuli/object_06.png","stimuli/object_04.png","post_judgment","461","html-slider-response","3845326","0.0-22.0-1.29"
"8201","post","0","4347","stimuli/object_04.png","stimuli/object_02.png","post_judgment","463","html-slider-response","3850678","0.0-22.0-1.30"
"8201","post","49","5108","stimuli/object_10.png","stimuli/object_05.png","post_judgment","465","html-slider-response","3856790","0.0-22.0-1.31"
"8201","post","49","5419","stimuli/object_07.png","stimuli/object_01.png","post_judgment","467","html-slider-response","3863221","0.0-22.0-1.32"
"8201","post","0","4694","stimuli/object_07.png","stimuli/object_03.png","post_judgment","469","html-slider-response","3868925","0.0-22.0-1.33"
"8201","post","49","5096","stimuli/object_01.png","stimuli/object_05.png","post_judgment","471","html-slider-response","3875029","0.0-22.0-1.34"
"8201","post","49","5796","stimuli/object_02.png","stimuli/object_06.png","post_judgment","473","html-slider-response","3881827","0.0-22.0-1.35"
"8201","post","49","4157","stimuli/object_06.png","stimuli/object_08.png","post_judgment","475","html-slider-response","3886987","0.0-22.0-1.36"
"8201","post","100","5196","stimuli/object_10.png","stimuli/object_09.png","post_judgment","477","html-slider-response","3893187","0.0-22.0-1.37"
"8201","post","49","4725","stimuli/object_09.png","stimuli/object_07.png","post_judgment","479","html-slider-response","3898915","0.0-22.0-1.38"
"8201","post","100","10315","stimuli/object_01.png","stimuli/object_03.png","post_judgment","481","html-slider-response","3910234","0.0-22.0-1.39"
"8201","post","49","5115","stimuli/object_06.png","stimuli/object_07.png","post_judgment","483","html-slider-response","3916353","0.0-22.0-1.40"
"8201","post","0","4162","stimuli/object_07.png","stimuli/object_05.png","post_judgment","485","html-slider-response","3921521","0.0-22.0-1.41"
"8201","post","50","5393","stimuli/object_04.png","stimuli/object_08.png","post_judgment","487","html-slider-response","3927921","0.0-22.0-1.42"
"8201","post","100","6312","stimuli/object_01.png","stimuli/object_06.png","post_judgment","489","html-slider-response","3935240","0.0-22.0-1.43"
"8201","post","100","4424","stimuli/object_08.png","stimuli/object_02.png","post_judgment","491","html-slider-response","3940671","0.0-22.0-1.44"
"practice","pre","0","2655","stimuli/object_09.png","stimuli/object_03.png","pre_judgment","11","html-slider-response","74015","0.0-5.0-1.0"
"practice","pre","9","1189","stimuli/object_05.png","stimuli/object_10.png","pre_judgment","13","html-slider-response","76214","0.0-5.0-1.1"
"practice","pre","10","1401","stimuli/object_01.png","stimuli/object_06.png","pre_judgment","15","html-slider-response","78622","0.0-5.0-1.2"
"practice","pre","11","1364","stimuli/object_09.png","stimuli/object_06.png","pre_judgment","17","html-slider-response","80997","0.0-5.0-1.3"
"practice","pre","21","1642","stimuli/object_10.png","stimuli/object_06.png","pre_judgment","19","html-slider-response","83645","0.0-5.0-1.4"
"practice","pre","36","976","stimuli/object_03.png","stimuli/object_07.png","pre_judgment","21","html-slider-response","85630","0.0-5.0-1.5"
"practice","pre","28","1978","stimuli/object_09.png","stimuli/object_01.png","pre_judgment","23","html-slider-response","88621","0.0-5.0-1.6"
"practice","pre","33","2773","stimuli/object_08.png","stimuli/object_09.png","pre_judgment","25","html-slider-response","92404","0.0-5.0-1.7"
"practice","pre","5","2992","stimuli/object_03.png","stimuli/object_02.png","pre_judgment","27","html-slider-response","96404","0.0-5.0-1.8"
"practice","pre","11","1609","stimuli/object_04.png","stimuli/object_06.png","pre_judgment","29","html-slider-response","99020","0.0-5.0-1.9"
"practice","pre","31","3023","stimuli/object_07.png","stimuli/object_10.png","pre_judgment","31","html-slider-response","103051","0.0-5.0-1.10"
"practice","pre","11","1351","stimuli/object_07.png","stimuli/object_06.png","pre_judgment","33","html-slider-response","105411","0.0-5.0-1.11"
"practice","pre","25","1544","stimuli/object_07.png","stimuli/object_09.png","pre_judgment","35","html-slider-response","107963","0.0-5.0-1.12"
"practice","pre","19","1642","stimuli/object_02.png","stimuli/object_07.png","pre_judgment","37","html-slider-response","110611","0.0-5.0-1.13"
"practice","pre","18","1408","stimuli/object_02.png","stimuli/object_09.png","pre_judgment","39","html-slider-response","113029","0.0-5.0-1.14"
"practice","pre","18","1605","stimuli/object_01.png","stimuli/object_10.png","pre_judgment","41","html-slider-response","115643","0.0-5.0-1.15"
"practice","pre","22","2833","stimuli/object_08.png","stimuli/object_06.png","pre_judgment","43","html-slider-response","119482","0.0-5.0-1.16"
"practice","pre","23","1664","stimuli/object_04.png","stimuli/object_08.png","pre_judgment","45","html-slider-response","122155","0.0-5.0-1.17"
"practice","pre","28","1395","stimuli/object_02.png","stimuli/object_04.png","pre_judgment","47","html-slider-response","124554","0.0-5.0-1.18"
"practice","pre","32","1224","stimuli/object_05.png","stimuli/object_09.png","pre_judgment","49","html-slider-response","126786","0.0-5.0-1.19"
"practice","pre","32","1339","stimuli/object_06.png","stimuli/object_03.png","pre_judgment","51","html-slider-response","129138","0.0-5.0-1.20"
"practice","pre","37","956","stimuli/object_10.png","stimuli/object_08.png","pre_judgment","53","html-slider-response","131105","0.0-5.0-1.21"
"practice","pre","36","1157","stimuli/object_07.png","stimuli/object_08.png","pre_judgment","55","html-slider-response","133273","0.0-5.0-1.22"
"practice","pre","39","1219","stimuli/object_08.png","stimuli/object_01.png","pre_judgment","57","html-slider-response","135496","0.0-5.0-1.23"
"practice","pre","37","1251","stimuli/object_05.png","stimuli/object_07.png","pre_judgment","59","html-slider-response","137754","0.0-5.0-1.24"
"practice","pre","34","1496","stimuli/object_02.png","stimuli/object_08.png","pre_judgment","61","html-slider-response","140265","0.0-5.0-1.25"
"practice","pre","35","1259","stimuli/object_06.png","stimuli/object_02.png","pre_judgment","63","html-slider-response","142537","0.0-5.0-1.26"
"practice","pre","29","1141","stimuli/object_02.png","stimuli/object_01.png","pre_judgment","65","html-slider-response","144689","0.0-5.0-1.27"
"practice","pre","31","1023","stimuli/object_03.png","stimuli/object_01.png","pre_judgment","67","html-slider-response","146721","0.0-5.0-1.28"
"practice","pre","31","1064","stimuli/object_04.png","stimuli/object_01.png","pre_judgment","69","html-slider-response","148792","0.0-5.0-1.29"
"practice","pre","38","1067","stimuli/object_03.png","stimuli/object_05.png","pre_judgment","71","html-slider-response","150865","0.0-5.0-1.30"
"practice","pre","42","1328","stimuli/object_04.png","stimuli/object_05.png","pre_judgment","73","html-slider-response","153200","0.0-5.0-1.31"
"practice","pre","41","1971","stimuli/object_04.png","stimuli/object_03.png","pre_judgment","75","html-slider-response","156176","0.0-5.0-1.32"
"practice","pre","32","1861","stimuli/object_02.png","stimuli/object_05.png","pre_judgment","77","html-slider-response","159047","0.0-5.0-1.33"
"practice","pre","32","1487","stimuli/object_03.png","stimuli/object_10.png","pre_judgment","79","html-slider-response","161544","0.0-5.0-1.34"
"practice","pre","30","981","stimuli/object_05.png","stimuli/object_06.png","pre_judgment","81","html-slider-response","163534","0.0-5.0-1.35"
"practice","pre","31","996","stimuli/object_04.png","stimuli/object_09.png","pre_judgment","83","html-slider-response","165544","0.0-5.0-1.36"
"practice","pre","28","1027","stimuli/object_03.png","stimuli/object_08.png","pre_judgment","85","html-slider-response","167583","0.0-5.0-1.37"
"practice","pre","34","1219","stimuli/object_04.png","stimuli/object_10.png","pre_judgment","87","html-slider-response","169815","0.0-5.0-1.38"
"practice","pre","28","1000","stimuli/object_01.png","stimuli/object_07.png","pre_judgment","89","html-slider-response","171824","0.0-5.0-1.39"
"practice","pre","27","995","stimuli/object_10.png","stimuli/object_02.png","pre_judgment","91","html-slider-response","173830","0.0-5.0-1.40"
"practice","pre","34","1354","stimuli/object_05.png","stimuli/object_08.png","pre_judgment","93","html-slider-response","176190","0.0-5.0-1.41"
"practice","pre","35","868","stimuli/object_05.png","stimuli/object_01.png","pre_judgment","95","html-slider-response","178063","0.0-5.0-1.42"
"practice","pre","37","1346","stimuli/object_10.png","stimuli/object_09.png","pre_judgment","97","html-slider-response","180422","0.0-5.0-1.43"
"practice","pre","39","2418","stimuli/object_04.png","stimuli/object_07.png","pre_judgment","99","html-slider-response","183854","0.0-5.0-1.44"
"8101","pre","84","9258","stimuli/object_08.png","stimuli/object_10.png","pre_judgment","11","html-slider-response","115329","0.0-5.0-1.0"
"8101","pre","2","6756","stimuli/object_10.png","stimuli/object_04.png","pre_judgment","13","html-slider-response","123095","0.0-5.0-1.1"
"8101","pre","2","3949","stimuli/object_05.png","stimuli/object_10.png","pre_judgment","15","html-slider-response","128048","0.0-5.0-1.2"
"8101","pre","57","5548","stimuli/object_02.png","stimuli/object_01.png","pre_judgment","17","html-slider-response","134607","0.0-5.0-1.3"
"8101","pre","68","7477","stimuli/object_02.png","stimuli/object_08.png","pre_judgment","19","html-slider-response","143095","0.0-5.0-1.4"
"8101","pre","4","14531","stimuli/object_03.png","stimuli/object_05.png","pre_judgment","21","html-slider-response","158630","0.0-5.0-1.5"
"8101","pre","78","18551","stimuli/object_08.png","stimuli/object_03.png","pre_judgment","23","html-slider-response","178188","0.0-5.0-1.6"
"8101","pre","51","7472","stimuli/object_07.png","stimuli/object_05.png","pre_judgment","25","html-slider-response","186668","0.0-5.0-1.7"
"8101","pre","79","12351","stimuli/object_02.png","stimuli/object_06.png","pre_judgment","27","html-slider-response","200027","0.0-5.0-1.8"
"8101","pre","89","4488","stimuli/object_09.png","stimuli/object_03.png","pre_judgment","29","html-slider-response","205522","0.0-5.0-1.9"
"8101","pre","5","4037","stimuli/object_01.png","stimuli/object_10.png","pre_judgment","31","html-slider-response","210570","0.0-5.0-1.10"
"8101","pre","3","4131","stimuli/object_03.png","stimuli/object_02.png","pre_judgment","33","html-slider-response","215706","0.0-5.0-1.11"
"8101","pre","3","9415","stimuli/object_05.png","stimuli/object_09.png","pre_judgment","35","html-slider-response","226128","0.0-5.0-1.12"
"8101","pre","3","4316","stimuli/object_07.png","stimuli/object_04.png","pre_judgment","37","html-slider-response","231449","0.0-5.0-1.13"
"8101","pre","4","3883","stimuli/object_04.png","stimuli/object_02.png","pre_judgment","39","html-slider-response","236336","0.0-5.0-1.14"
"8101","pre","70","3794","stimuli/object_09.png","stimuli/object_08.png","pre_judgment","41","html-slider-response","241136","0.0-5.0-1.15"
"8101","pre","64","7674","stimuli/object_10.png","stimuli/object_07.png","pre_judgment","43","html-slider-response","249815","0.0-5.0-1.16"
"8101","pre","50","4785","stimuli/object_06.png","stimuli/object_10.png","pre_judgment","45","html-slider-response","255606","0.0-5.0-1.17"
"8101","pre","4","5684","stimuli/object_04.png","stimuli/object_09.png","pre_judgment","47","html-slider-response","262294","0.0-5.0-1.18"
"8101","pre","83","5529","stimuli/object_06.png","stimuli/object_07.png","pre_judgment","49","html-slider-response","268829","0.0-5.0-1.19"
"8101","pre","2","3541","stimuli/object_04.png","stimuli/object_08.png","pre_judgment","51","html-slider-response","273381","0.0-5.0-1.20"
"8101","pre","0","3127","stimuli/object_06.png","stimuli/object_05.png","pre_judgment","53","html-slider-response","277517","0.0-5.0-1.21"
"8101","pre","0","15861","stimuli/object_06.png","stimuli/object_08.png","pre_judgment","55","html-slider-response","294379","0.0-5.0-1.22"
"8101","pre","1","11295","stimuli/object_01.png","stimuli/object_03.png","pre_judgment","57","html-slider-response","306683","0.0-5.0-1.23"
"8101","pre","0","3308","stimuli/object_01.png","stimuli/object_08.png","pre_judgment","59","html-slider-response","310994","0.0-5.0-1.24"
"8101","pre","70","5459","stimuli/object_02.png","stimuli/object_07.png","pre_judgment","61","html-slider-response","317466","0.0-5.0-1.25"
"8101","pre","0","3190","stimuli/object_05.png","stimuli/object_08.png","pre_judgment","63","html-slider-response","321666","0.0-5.0-1.26"
"8101","pre","0","3757","stimuli/object_10.png","stimuli/object_03.png","pre_judgment","65","html-slider-response","326433","0.0-5.0-1.27"
"8101","pre","31","10373","stimuli/object_04.png","stimuli/object_05.png","pre_judgment","67","html-slider-response","337809","0.0-5.0-1.28"
"8101","pre","5","7610","stimuli/object_02.png","stimuli/object_05.png","pre_judgment","69","html-slider-response","346424","0.0-5.0-1.29"
"8101","pre","95","15997","stimuli/object_01.png","stimuli/object_05.png","pre_judgment","71","html-slider-response","363430","0.0-5.0-1.30"
"8101","pre","69","9262","stimuli/object_09.png","stimuli/object_02.png","pre_judgment","73","html-slider-response","373694","0.0-5.0-1.31"
"8101","pre","93","11680","stimuli/object_04.png","stimuli/object_01.png","pre_judgment","75","html-slider-response","386381","0.0-5.0-1.32"
"8101","pre","53","7038","stimuli/object_04.png","stimuli/object_03.png","pre_judgment","77","html-slider-response","394428","0.0-5.0-1.33"
"8101","pre","88","24533","stimuli/object_02.png","stimuli/object_10.png","pre_judgment","79","html-slider-response","419963","0.0-5.0-1.34"
"8101","pre","63","20304","stimuli/object_01.png","stimuli/object_09.png","pre_judgment","81","html-slider-response","441274","0.0-5.0-1.35"
"8101","pre","7","18091","stimuli/object_07.png","stimuli/object_09.png","pre_judgment","83","html-slider-response","460369","0.0-5.0-1.36"
"8101","pre","32","11965","stimuli/object_08.png","stimuli/object_07.png","pre_judgment","85","html-slider-response","473384","0.0-5.0-1.37"
"8101","pre","93","13842","stimuli/object_06.png","stimuli/object_03.png","pre_judgment","87","html-slider-response","488231","0.0-5.0-1.38"
"8101","pre","5","25567","stimuli/object_01.png","stimuli/object_07.png","pre_judgment","89","html-slider-response","514805","0.0-5.0-1.39"
"8101","pre","65","14431","stimuli/object_10.png","stimuli/object_09.png","pre_judgment","91","html-slider-response","530244","0.0-5.0-1.40"
"8101","pre","87","9204","stimuli/object_01.png","stimuli/object_06.png","pre_judgment","93","html-slider-response","540459","0.0-5.0-1.41"
"8101","pre","1","5785","stimuli/object_03.png","stimuli/object_07.png","pre_judgment","95","html-slider-response","547251","0.0-5.0-1.42"
"8101","pre","5","15802","stimuli/object_04.png","stimuli/object_06.png","pre_judgment","97","html-slider-response","564057","0.0-5.0-1.43"
"8101","pre","0","5401","stimuli/object_06.png","stimuli/object_09.png","pre_judgment","99","html-slider-response","570465","0.0-5.0-1.44"
"8101","post","6","16990","stimuli/object_05.png","stimuli/object_10.png","post_judgment","390","html-slider-response","3686429","0.0-22.0-1.0"
"8101","post","11","16951","stimuli/object_06.png","stimuli/object_02.png","post_judgment","392","html-slider-response","3704387","0.0-22.0-1.1"
"8101","post","91","4568","stimuli/object_02.png","stimuli/object_09.png","post_judgment","394","html-slider-response","3709963","0.0-22.0-1.2"
"8101","post","89","7451","stimuli/object_02.png","stimuli/object_07.png","post_judgment","396","html-slider-response","3718426","0.0-22.0-1.3"
"8101","post","5","13551","stimuli/object_07.png","stimuli/object_04.png","post_judgment","398","html-slider-response","3732986","0.0-22.0-1.4"
"8101","post","5","5552","stimuli/object_08.png","stimuli/object_09.png","post_judgment","400","html-slider-response","3739545","0.0-22.0-1.5"
"8101","post","100","4151","stimuli/object_07.png","stimuli/object_01.png","post_judgment","402","html-slider-response","3744705","0.0-22.0-1.6"
"8101","post","94","5367","stimuli/object_08.png","stimuli/object_07.png","post_judgment","404","html-slider-response","3751080","0.0-22.0-1.7"
"8101","post","2","4895","stimuli/object_04.png","stimuli/object_02.png","post_judgment","406","html-slider-response","3756984","0.0-22.0-1.8"
"8101","post","2","9567","stimuli/object_05.png","stimuli/object_07.png","post_judgment","408","html-slider-response","3767560","0.0-22.0-1.9"
"8101","post","10","13811","stimuli/object_06.png","stimuli/object_01.png","post_judgment","410","html-slider-response","3782382","0.0-22.0-1.10"
"8101","post","96","5359","stimuli/object_03.png","stimuli/object_10.png","post_judgment","412","html-slider-response","3788750","0.0-22.0-1.11"
"8101","post","4","4094","stimuli/object_02.png","stimuli/object_05.png","post_judgment","414","html-slider-response","3793854","0.0-22.0-1.12"
"8101","post","8","5282","stimuli/object_01.png","stimuli/object_10.png","post_judgment","416","html-slider-response","3800141","0.0-22.0-1.13"
"8101","post","95","4672","stimuli/object_02.png","stimuli/object_01.png","post_judgment","418","html-slider-response","3805821","0.0-22.0-1.14"
"8101","post","98","4439","stimuli/object_07.png","stimuli/object_03.png","post_judgment","420","html-slider-response","3811269","0.0-22.0-1.15"
"8101","post","4","8509","stimuli/object_04.png","stimuli/object_06.png","post_judgment","422","html-slider-response","3820788","0.0-22.0-1.16"
"8101","post","89","9614","stimuli/object_09.png","stimuli/object_01.png","post_judgment","424","html-slider-response","3831411","0.0-22.0-1.17"
"8101","post","97","8097","stimuli/object_05.png","stimuli/object_09.png","post_judgment","426","html-slider-response","3840514","0.0-22.0-1.18"
"8101","post","86","10517","stimuli/object_06.png","stimuli/object_07.png","post_judgment","428","html-slider-response","3852034","0.0-22.0-1.19"
"8101","post","4","4948","stimuli/object_03.png","stimuli/object_01.png","post_judgment","430","html-slider-response","3857993","0.0-22.0-1.20"
"8101","post","9","8563","stimuli/object_02.png","stimuli/object_10.png","post_judgment","432","html-slider-response","3867569","0.0-22.0-1.21"
"8101","post","93","5857","stimuli/object_04.png","stimuli/object_09.png","post_judgment","434","html-slider-response","3874432","0.0-22.0-1.22"
"8101","post","8","12398","stimuli/object_05.png","stimuli/object_04.png","post_judgment","436","html-slider-response","3887839","0.0-22.0-1.23"
"8101","post","96","4122","stimuli/object_08.png","stimuli/object_03.png","post_judgment","438","html-slider-response","3892966","0.0-22.0-1.24"
"8101","post","92","4635","stimuli/object_09.png","stimuli/object_10.png","post_judgment","440","html-slider-response","3898606","0.0-22.0-1.25"
"8101","post","93","7242","stimuli/object_03.png","stimuli/object_04.png","post_judgment","442","html-slider-response","3906853","0.0-22.0-1.26"
"8101","post","98","5153","stimuli/object_02.png","stimuli/object_08.png","post_judgment","444","html-slider-response","3913013","0.0-22.0-1.27"
"8101","post","0","5632","stimuli/object_09.png","stimuli/object_06.png","post_judgment","446","html-slider-response","3919652","0.0-22.0-1.28"
"8101","post","94","5479","stimuli/object_07.png","stimuli/object_09.png","post_judgment","448","html-slider-response","3926140","0.0-22.0-1.29"
"8101","post","97","4846","stimuli/object_01.png","stimuli/object_04.png","post_judgment","450","html-slider-response","3931996","0.0-22.0-1.30"
"8101","post","2","3004","stimuli/object_01.png","stimuli/object_05.png","post_judgment","452","html-slider-response","3936003","0.0-22.0-1.31"
"8101","post","90","7825","stimuli/object_03.png","stimuli/object_06.png","post_judgment","454","html-slider-response","3944835","0.0-22.0-1.32"
"8101","post","3","3507","stimuli/object_05.png","stimuli/object_06.png","post_judgment","456","html-slider-response","3949347","0.0-22.0-1.33"
"8101","post","94","5028","stimuli/object_07.png","stimuli/object_10.png","post_judgment","458","html-slider-response","3955386","0.0-22.0-1.34"
"8101","post","2","3499","stimuli/object_08.png","stimuli/object_06.png","post_judgment","460","html-slider-response","3959898","0.0-22.0-1.35"
"8101","post","89","6870","stimuli/object_02.png","stimuli/object_03.png","post_judgment","462","html-slider-response","3967778","0.0-22.0-1.36"
"8101","post","93","7342","stimuli/object_09.png","stimuli/object_03.png","post_judgment","464","html-slider-response","3976129","0.0-22.0-1.37"
"8101","post","7","4255","stimuli/object_08.png","stimuli/object_01.png","post_judgment","466","html-slider-response","3981392","0.0-22.0-1.38"
"8101","post","6","5283","stimuli/object_04.png","stimuli/object_08.png","post_judgment","468","html-slider-response","3987679","0.0-22.0-1.39"
"8101","post","96","3658","stimuli/object_05.png","stimuli/object_03.png","post_judgment","470","html-slider-response","3992343","0.0-22.0-1.40"
"8101","post","7","5443","stimuli/object_08.png","stimuli/object_10.png","post_judgment","472","html-slider-response","3998799","0.0-22.0-1.41"
"8101","post","7","5368","stimuli/object_10.png","stimuli/object_04.png","post_judgment","474","html-slider-response","4005174","0.0-22.0-1.42"
"8101","post","4","11845","stimuli/object_08.png","stimuli/object_05.png","post_judgment","476","html-slider-response","4018030","0.0-22.0-1.43"
"8101","post","97","4684","stimuli/object_10.png","stimuli/object_06.png","post_judgment","478","html-slider-response","4023717","0.0-22.0-1.44"
"8102","pre","17","11496","stimuli/object_05.png","stimuli/object_01.png","pre_judgment","11","html-slider-response","92497","0.0-5.0-1.0"
"8102","pre","18","7882","stimuli/object_01.png","stimuli/object_03.png","pre_judgment","13","html-slider-response","101393","0.0-5.0-1.1"
"8102","pre","37","10785","stimuli/object_09.png","stimuli/object_04.png","pre_judgment","15","html-slider-response","113184","0.0-5.0-1.2"
"8102","pre","1","6084","stimuli/object_04.png","stimuli/object_08.png","pre_judgment","17","html-slider-response","120272","0.0-5.0-1.3"
"8102","pre","52","9505","stimuli/object_03.png","stimuli/object_08.png","pre_judgment","19","html-slider-response","130782","0.0-5.0-1.4"
"8102","pre","1","6171","stimuli/object_05.png","stimuli/object_06.png","pre_judgment","21","html-slider-response","137958","0.0-5.0-1.5"
"8102","pre","19","6047","stimuli/object_04.png","stimuli/object_03.png","pre_judgment","23","html-slider-response","145014","0.0-5.0-1.6"
"8102","pre","25","4252","stimuli/object_01.png","stimuli/object_04.png","pre_judgment","25","html-slider-response","150269","0.0-5.0-1.7"
"8102","pre","30","5560","stimuli/object_05.png","stimuli/object_02.png","pre_judgment","27","html-slider-response","156837","0.0-5.0-1.8"
"8102","pre","2","8623","stimuli/object_01.png","stimuli/object_10.png","pre_judgment","29","html-slider-response","166468","0.0-5.0-1.9"
"8102","pre","8","6993","stimuli/object_05.png","stimuli/object_07.png","pre_judgment","31","html-slider-response","174468","0.0-5.0-1.10"
"8102","pre","12","9112","stimuli/object_05.png","stimuli/object_04.png","pre_judgment","33","html-slider-response","184587","0.0-5.0-1.11"
"8102","pre","40","7608","stimuli/object_07.png","stimuli/object_02.png","pre_judgment","35","html-slider-response","193203","0.0-5.0-1.12"
"8102","pre","9","6709","stimuli/object_02.png","stimuli/object_09.png","pre_judgment","37","html-slider-response","200922","0.0-5.0-1.13"
"8102","pre","16","5028","stimuli/object_09.png","stimuli/object_05.png","pre_judgment","39","html-slider-response","206962","0.0-5.0-1.14"
"8102","pre","16","3837","stimuli/object_03.png","stimuli/object_07.png","pre_judgment","41","html-slider-response","211809","0.0-5.0-1.15"
"8102","pre","12","4518","stimuli/object_10.png","stimuli/object_02.png","pre_judgment","43","html-slider-response","217329","0.0-5.0-1.16"
"8102","pre","32","6876","stimuli/object_08.png","stimuli/object_06.png","pre_judgment","45","html-slider-response","225208","0.0-5.0-1.17"
"8102","pre","26","12293","stimuli/object_02.png","stimuli/object_01.png","pre_judgment","47","html-slider-response","238503","0.0-5.0-1.18"
"8102","pre","30","5233","stimuli/object_01.png","stimuli/object_07.png","pre_judgment","49","html-slider-response","244743","0.0-5.0-1.19"
"8102","pre","0","3369","stimuli/object_03.png","stimuli/object_06.png","pre_judgment","51","html-slider-response","249118","0.0-5.0-1.20"
"8102","pre","75","6212","stimuli/object_05.png","stimuli/object_03.png","pre_judgment","53","html-slider-response","256342","0.0-5.0-1.21"
"8102","pre","1","9848","stimuli/object_10.png","stimuli/object_05.png","pre_judgment","55","html-slider-response","267197","0.0-5.0-1.22"
"8102","pre","73","4525","stimuli/object_02.png","stimuli/object_06.png","pre_judgment","57","html-slider-response","272733","0.0-5.0-1.23"
"8102","pre","68","6027","stimuli/object_10.png","stimuli/object_08.png","pre_judgment","59","html-slider-response","279764","0.0-5.0-1.24"
"8102","pre","81","6524","stimuli/object_02.png","stimuli/object_03.png","pre_judgment","61","html-slider-response","287293","0.0-5.0-1.25"
"8102","pre","0","10810","stimuli/object_01.png","stimuli/object_09.png","pre_judgment","63","html-slider-response","299107","0.0-5.0-1.26"
"8102","pre","0","7574","stimuli/object_07.png","stimuli/object_04.png","pre_judgment","65","html-slider-response","307690","0.0-5.0-1.27"
"8102","pre","0","3347","stimuli/object_04.png","stimuli/object_02.png","pre_judgment","67","html-slider-response","312041","0.0-5.0-1.28"
"8102","pre","10","5229","stimuli/object_09.png","stimuli/object_07.png","pre_judgment","69","html-slider-response","318274","0.0-5.0-1.29"
"8102","pre","0","3792","stimuli/object_05.png","stimuli/object_08.png","pre_judgment","71","html-slider-response","323073","0.0-5.0-1.30"
"8102","pre","1","5743","stimuli/object_08.png","stimuli/object_01.png","pre_judgment","73","html-slider-response","329825","0.0-5.0-1.31"
"8102","pre","0","5029","stimuli/object_10.png","stimuli/object_03.png","pre_judgment","75","html-slider-response","335865","0.0-5.0-1.32"
"8102","pre","0","3542","stimuli/object_03.png","stimuli/object_09.png","pre_judgment","77","html-slider-response","340416","0.0-5.0-1.33"
"8102","pre","79","8399","stimuli/object_08.png","stimuli/object_07.png","pre_judgment","79","html-slider-response","349823","0.0-5.0-1.34"
"8102","pre","0","4541","stimuli/object_09.png","stimuli/object_06.png","pre_judgment","81","html-slider-response","355374","0.0-5.0-1.35"
"8102","pre","94","4175","stimuli/object_06.png","stimuli/object_04.png","pre_judgment","83","html-slider-response","360559","0.0-5.0-1.36"
"8102","pre","56","7052","stimuli/object_07.png","stimuli/object_06.png","pre_judgment","85","html-slider-response","368614","0.0-5.0-1.37"
"8102","pre","58","4272","stimuli/object_06.png","stimuli/object_10.png","pre_judgment","87","html-slider-response","373893","0.0-5.0-1.38"
"8102","pre","93","5456","stimuli/object_10.png","stimuli/object_07.png","pre_judgment","89","html-slider-response","380358","0.0-5.0-1.39"
"8102","pre","90","4748","stimuli/object_04.png","stimuli/object_10.png","pre_judgment","91","html-slider-response","386109","0.0-5.0-1.40"
"8102","pre","0","5445","stimuli/object_09.png","stimuli/object_10.png","pre_judgment","93","html-slider-response","392564","0.0-5.0-1.41"
"8102","pre","17","4522","stimuli/object_06.png","stimuli/object_01.png","pre_judgment","95","html-slider-response","398092","0.0-5.0-1.42"
"8102","pre","24","5840","stimuli/object_09.png","stimuli/object_08.png","pre_judgment","97","html-slider-response","404939","0.0-5.0-1.43"
"8102","pre","100","3453","stimuli/object_02.png","stimuli/object_08.png","pre_judgment","99","html-slider-response","409403","0.0-5.0-1.44"
"8102","post","0","7799","stimuli/object_05.png","stimuli/object_07.png","post_judgment","390","html-slider-response","3740483","0.0-22.0-1.0"
"8102","post","1","3582","stimuli/object_05.png","stimuli/object_08.png","post_judgment","392","html-slider-response","3745075","0.0-22.0-1.1"
"8102","post","0","3351","stimuli/object_08.png","stimuli/object_04.png","post_judgment","394","html-slider-response","3749434","0.0-22.0-1.2"
"8102","post","0","2416","stimuli/object_06.png","stimuli/object_07.png","post_judgment","396","html-slider-response","3752858","0.0-22.0-1.3"
"8102","post","0","4587","stimuli/object_05.png","stimuli/object_06.png","post_judgment","398","html-slider-response","3758450","0.0-22.0-1.4"
"8102","post","0","2789","stimuli/object_06.png","stimuli/object_02.png","post_judgment","400","html-slider-response","3762242","0.0-22.0-1.5"
"8102","post","0","2396","stimuli/object_10.png","stimuli/object_05.png","post_judgment","402","html-slider-response","3765649","0.0-22.0-1.6"
"8102","post","0","2221","stimuli/object_05.png","stimuli/object_03.png","post_judgment","404","html-slider-response","3768873","0.0-22.0-1.7"
"8102","post","0","2103","stimuli/object_03.png","stimuli/object_06.png","post_judgment","406","html-slider-response","3771985","0.0-22.0-1.8"
"8102","post","0","2047","stimuli/object_02.png","stimuli/object_08.png","post_judgment","408","html-slider-response","3775080","0.0-22.0-1.9"
"8102","post","0","2036","stimuli/object_04.png","stimuli/object_01.png","post_judgment","410","html-slider-response","3778120","0.0-22.0-1.10"
"8102","post","0","2244","stimuli/object_07.png","stimuli/object_01.png","post_judgment","412","html-slider-response","3781368","0.0-22.0-1.11"
"8102","post","0","1858","stimuli/object_04.png","stimuli/object_03.png","post_judgment","414","html-slider-response","3784232","0.0-22.0-1.12"
"8102","post","0","2308","stimuli/object_07.png","stimuli/object_04.png","post_judgment","416","html-slider-response","3787551","0.0-22.0-1.13"
"8102","post","0","1909","stimuli/object_07.png","stimuli/object_08.png","post_judgment","418","html-slider-response","3790463","0.0-22.0-1.14"
"8102","post","0","1525","stimuli/object_02.png","stimuli/object_01.png","post_judgment","420","html-slider-response","3792998","0.0-22.0-1.15"
"8102","post","0","2724","stimuli/object_09.png","stimuli/object_05.png","post_judgment","422","html-slider-response","3796726","0.0-22.0-1.16"
"8102","post","0","1938","stimuli/object_03.png","stimuli/object_08.png","post_judgment","424","html-slider-response","3799670","0.0-22.0-1.17"
"8102","post","0","2044","stimuli/object_03.png","stimuli/object_02.png","post_judgment","426","html-slider-response","3802717","0.0-22.0-1.18"
"8102","post","0","1948","stimuli/object_07.png","stimuli/object_10.png","post_judgment","428","html-slider-response","3805670","0.0-22.0-1.19"
"8102","post","0","2183","stimuli/object_05.png","stimuli/object_04.png","post_judgment","430","html-slider-response","3808862","0.0-22.0-1.20"
"8102","post","0","2366","stimuli/object_09.png","stimuli/object_04.png","post_judgment","432","html-slider-response","3812238","0.0-22.0-1.21"
"8102","post","0","1476","stimuli/object_03.png","stimuli/object_07.png","post_judgment","434","html-slider-response","3814717","0.0-22.0-1.22"
"8102","post","0","2619","stimuli/object_01.png","stimuli/object_10.png","post_judgment","436","html-slider-response","3818341","0.0-22.0-1.23"
"8102","post","0","3047","stimuli/object_08.png","stimuli/object_10.png","post_judgment","438","html-slider-response","3822397","0.0-22.0-1.24"
"8102","post","0","2052","stimuli/object_08.png","stimuli/object_01.png","post_judgment","440","html-slider-response","3825452","0.0-22.0-1.25"
"8102","post","0","2224","stimuli/object_05.png","stimuli/object_02.png","post_judgment","442","html-slider-response","3828684","0.0-22.0-1.26"
"8102","post","1","2282","stimuli/object_01.png","stimuli/object_03.png","post_judgment","444","html-slider-response","3831972","0.0-22.0-1.27"
"8102","post","0","2375","stimuli/object_04.png","stimuli/object_06.png","post_judgment","446","html-slider-response","3835356","0.0-22.0-1.28"
"8102","post","0","1915","stimuli/object_10.png","stimuli/object_02.png","post_judgment","448","html-slider-response","3838275","0.0-22.0-1.29"
"8102","post","0","1708","stimuli/object_09.png","stimuli/object_10.png","post_judgment","450","html-slider-response","3840987","0.0-22.0-1.30"
"8102","post","0","1717","stimuli/object_03.png","stimuli/object_10.png","post_judgment","452","html-slider-response","3843715","0.0-22.0-1.31"
"8102","post","0","1820","stimuli/object_07.png","stimuli/object_02.png","post_judgment","454","html-slider-response","3846539","0.0-22.0-1.32"
"8102","post","0","2031","stimuli/object_10.png","stimuli/object_06.png","post_judgment","456","html-slider-response","3849579","0.0-22.0-1.33"
"8102","post","0","1863","stimuli/object_10.png","stimuli/object_04.png","post_judgment","458","html-slider-response","3852450","0.0-22.0-1.34"
"8102","post","0","1631","stimuli/object_01.png","stimuli/object_06.png","post_judgment","460","html-slider-response","3855090","0.0-22.0-1.35"
"8102","post","0","2376","stimuli/object_08.png","stimuli/object_06.png","post_judgment","462","html-slider-response","3858474","0.0-22.0-1.36"
"8102","post","0","2084","stimuli/object_09.png","stimuli/object_08.png","post_judgment","464","html-slider-response","3861561","0.0-22.0-1.37"
"8102","post","0","1946","stimuli/object_09.png","stimuli/object_06.png","post_judgment","466","html-slider-response","3864514","0.0-22.0-1.38"
"8102","post","0","2036","stimuli/object_05.png","stimuli/object_01.png","post_judgment","468","html-slider-response","3867553","0.0-22.0-1.39"
"8102","post","0","2820","stimuli/object_01.png","stimuli/object_09.png","post_judgment","470","html-slider-response","3871377","0.0-22.0-1.40"
"8102","post","0","1734","stimuli/object_07.png","stimuli/object_09.png","post_judgment","472","html-slider-response","3874121","0.0-22.0-1.41"
"8102","post","0","2026","stimuli/object_09.png","stimuli/object_02.png","post_judgment","474","html-slider-response","3877153","0.0-22.0-1.42"
"8102","post","0","1885","stimuli/object_04.png","stimuli/object_02.png","post_judgment","476","html-slider-response","3880041","0.0-22.0-1.43"
"8102","post","0","2306","stimuli/object_03.png","stimuli/object_09.png","post_judgment","478","html-slider-response","3883353","0.0-22.0-1.44"
"8202","pre","45","5638","stimuli/object_09.png","stimuli/object_05.png","pre_judgment","11","html-slider-response","87096","0.0-5.0-1.0"
"8202","pre","3","5093","stimuli/object_09.png","stimuli/object_07.png","pre_judgment","13","html-slider-response","93199","0.0-5.0-1.1"
"8202","pre","2","5817","stimuli/object_01.png","stimuli/object_09.png","pre_judgment","15","html-slider-response","100023","0.0-5.0-1.2"
"8202","pre","5","5580","stimuli/object_05.png","stimuli/object_06.png","pre_judgment","17","html-slider-response","106606","0.0-5.0-1.3"
"8202","pre","44","4879","stimuli/object_04.png","stimuli/object_08.png","pre_judgment","19","html-slider-response","112494","0.0-5.0-1.4"
"8202","pre","3","4805","stimuli/object_03.png","stimuli/object_04.png","pre_judgment","21","html-slider-response","118310","0.0-5.0-1.5"
"8202","pre","16","4547","stimuli/object_04.png","stimuli/object_01.png","pre_judgment","23","html-slider-response","123861","0.0-5.0-1.6"
"8202","pre","1","3101","stimuli/object_05.png","stimuli/object_08.png","pre_judgment","25","html-slider-response","127965","0.0-5.0-1.7"
"8202","pre","10","3583","stimuli/object_06.png","stimuli/object_04.png","pre_judgment","27","html-slider-response","132556","0.0-5.0-1.8"
"8202","pre","5","4449","stimuli/object_02.png","stimuli/object_06.png","pre_judgment","29","html-slider-response","138012","0.0-5.0-1.9"
"8202","pre","7","3364","stimuli/object_02.png","stimuli/object_10.png","pre_judgment","31","html-slider-response","142388","0.0-5.0-1.10"
"8202","pre","7","3827","stimuli/object_05.png","stimuli/object_03.png","pre_judgment","33","html-slider-response","147220","0.0-5.0-1.11"
"8202","pre","58","4366","stimuli/object_07.png","stimuli/object_06.png","pre_judgment","35","html-slider-response","152587","0.0-5.0-1.12"
"8202","pre","9","3044","stimuli/object_07.png","stimuli/object_04.png","pre_judgment","37","html-slider-response","156634","0.0-5.0-1.13"
"8202","pre","3","3529","stimuli/object_06.png","stimuli/object_03.png","pre_judgment","39","html-slider-response","161171","0.0-5.0-1.14"
"8202","pre","15","3871","stimuli/object_10.png","stimuli/object_06.png","pre_judgment","41","html-slider-response","166050","0.0-5.0-1.15"
"8202","pre","2","4564","stimuli/object_01.png","stimuli/object_02.png","pre_judgment","43","html-slider-response","171625","0.0-5.0-1.16"
"8202","pre","7","4419","stimuli/object_01.png","stimuli/object_05.png","pre_judgment","45","html-slider-response","177049","0.0-5.0-1.17"
"8202","pre","15","10990","stimuli/object_10.png","stimuli/object_08.png","pre_judgment","47","html-slider-response","189049","0.0-5.0-1.18"
"8202","pre","6","3391","stimuli/object_02.png","stimuli/object_09.png","pre_judgment","49","html-slider-response","193448","0.0-5.0-1.19"
"8202","pre","16","3671","stimuli/object_01.png","stimuli/object_06.png","pre_judgment","51","html-slider-response","198129","0.0-5.0-1.20"
"8202","pre","7","5279","stimuli/object_07.png","stimuli/object_08.png","pre_judgment","53","html-slider-response","204416","0.0-5.0-1.21"
"8202","pre","6","3797","stimuli/object_10.png","stimuli/object_04.png","pre_judgment","55","html-slider-response","209215","0.0-5.0-1.22"
"8202","pre","5","6477","stimuli/object_09.png","stimuli/object_03.png","pre_judgment","57","html-slider-response","216694","0.0-5.0-1.23"
"8202","pre","2","2773","stimuli/object_02.png","stimuli/object_05.png","pre_judgment","59","html-slider-response","220471","0.0-5.0-1.24"
"8202","pre","3","2977","stimuli/object_10.png","stimuli/object_07.png","pre_judgment","61","html-slider-response","224454","0.0-5.0-1.25"
"8202","pre","3","4053","stimuli/object_09.png","stimuli/object_08.png","pre_judgment","63","html-slider-response","229510","0.0-5.0-1.26"
"8202","pre","5","2665","stimuli/object_01.png","stimuli/object_03.png","pre_judgment","65","html-slider-response","233181","0.0-5.0-1.27"
"8202","pre","2","4050","stimuli/object_03.png","stimuli/object_07.png","pre_judgment","67","html-slider-response","238237","0.0-5.0-1.28"
"8202","pre","4","3048","stimuli/object_03.png","stimuli/object_08.png","pre_judgment","69","html-slider-response","242293","0.0-5.0-1.29"
"8202","pre","6","3342","stimuli/object_07.png","stimuli/object_05.png","pre_judgment","71","html-slider-response","246637","0.0-5.0-1.30"
"8202","pre","4","2552","stimuli/object_04.png","stimuli/object_02.png","pre_judgment","73","html-slider-response","250197","0.0-5.0-1.31"
"8202","pre","11","2839","stimuli/object_07.png","stimuli/object_01.png","pre_judgment","75","html-slider-response","254044","0.0-5.0-1.32"
"8202","pre","2","3420","stimuli/object_02.png","stimuli/object_08.png","pre_judgment","77","html-slider-response","258476","0.0-5.0-1.33"
"8202","pre","2","3134","stimuli/object_10.png","stimuli/object_03.png","pre_judgment","79","html-slider-response","262619","0.0-5.0-1.34"
"8202","pre","4","3899","stimuli/object_10.png","stimuli/object_05.png","pre_judgment","81","html-slider-response","267523","0.0-5.0-1.35"
"8202","pre","5","3446","stimuli/object_08.png","stimuli/object_06.png","pre_judgment","83","html-slider-response","271979","0.0-5.0-1.36"
"8202","pre","4","2908","stimuli/object_02.png","stimuli/object_07.png","pre_judgment","85","html-slider-response","275891","0.0-5.0-1.37"
"8202","pre","3","3220","stimuli/object_08.png","stimuli/object_01.png","pre_judgment","87","html-slider-response","280114","0.0-5.0-1.38"
"8202","pre","3","3447","stimuli/object_05.png","stimuli/object_04.png","pre_judgment","89","html-slider-response","284570","0.0-5.0-1.39"
"8202","pre","4","2948","stimuli/object_09.png","stimuli/object_04.png","pre_judgment","91","html-slider-response","288522","0.0-5.0-1.40"
"8202","pre","4","3023","stimuli/object_01.png","stimuli/object_10.png","pre_judgment","93","html-slider-response","292554","0.0-5.0-1.41"
"8202","pre","3","3991","stimuli/object_09.png","stimuli/object_10.png","pre_judgment","95","html-slider-response","297553","0.0-5.0-1.42"
"8202","pre","3","3679","stimuli/object_06.png","stimuli/object_09.png","pre_judgment","97","html-slider-response","302240","0.0-5.0-1.43"
"8202","pre","3","3439","stimuli/object_02.png","stimuli/object_03.png","pre_judgment","99","html-slider-response","306689","0.0-5.0-1.44"
"8202","post","16","27992","stimuli/object_05.png","stimuli/object_04.png","post_judgment","390","html-slider-response","3663037","0.0-22.0-1.0"
"8202","post","14","2511","stimuli/object_10.png","stimuli/object_06.png","post_judgment","392","html-slider-response","3666598","0.0-22.0-1.1"
"8202","post","13","2598","stimuli/object_08.png","stimuli/object_07.png","post_judgment","394","html-slider-response","3670206","0.0-22.0-1.2"
"8202","post","17","3998","stimuli/object_01.png","stimuli/object_06.png","post_judgment","396","html-slider-response","3675213","0.0-22.0-1.3"
"8202","post","23","2299","stimuli/object_09.png","stimuli/object_10.png","post_judgment","398","html-slider-response","3678517","0.0-22.0-1.4"
"8202","post","27","2775","stimuli/object_02.png","stimuli/object_10.png","post_judgment","400","html-slider-response","3682301","0.0-22.0-1.5"
"8202","post","25","2243","stimuli/object_06.png","stimuli/object_07.png","post_judgment","402","html-slider-response","3685549","0.0-22.0-1.6"
"8202","post","24","2433","stimuli/object_06.png","stimuli/object_03.png","post_judgment","404","html-slider-response","3688988","0.0-22.0-1.7"
"8202","post","22","2512","stimuli/object_04.png","stimuli/object_09.png","post_judgment","406","html-slider-response","3692508","0.0-22.0-1.8"
"8202","post","30","1969","stimuli/object_08.png","stimuli/object_09.png","post_judgment","408","html-slider-response","3695484","0.0-22.0-1.9"
"8202","post","24","2302","stimuli/object_05.png","stimuli/object_10.png","post_judgment","410","html-slider-response","3698795","0.0-22.0-1.10"
"8202","post","25","2438","stimuli/object_08.png","stimuli/object_03.png","post_judgment","412","html-slider-response","3702243","0.0-22.0-1.11"
"8202","post","27","2199","stimuli/object_01.png","stimuli/object_02.png","post_judgment","414","html-slider-response","3705451","0.0-22.0-1.12"
"8202","post","16","2156","stimuli/object_07.png","stimuli/object_02.png","post_judgment","416","html-slider-response","3708611","0.0-22.0-1.13"
"8202","post","17","2115","stimuli/object_02.png","stimuli/object_03.png","post_judgment","418","html-slider-response","3711731","0.0-22.0-1.14"
"8202","post","16","1900","stimuli/object_04.png","stimuli/object_03.png","post_judgment","420","html-slider-response","3714635","0.0-22.0-1.15"
"8202","post","25","2223","stimuli/object_10.png","stimuli/object_04.png","post_judgment","422","html-slider-response","3717867","0.0-22.0-1.16"
"8202","post","14","1991","stimuli/object_03.png","stimuli/object_07.png","post_judgment","424","html-slider-response","3720866","0.0-22.0-1.17"
"8202","post","22","2120","stimuli/object_01.png","stimuli/object_03.png","post_judgment","426","html-slider-response","3723994","0.0-22.0-1.18"
"8202","post","19","3846","stimuli/object_10.png","stimuli/object_07.png","post_judgment","428","html-slider-response","3728849","0.0-22.0-1.19"
"8202","post","17","2356","stimuli/object_05.png","stimuli/object_06.png","post_judgment","430","html-slider-response","3732209","0.0-22.0-1.20"
"8202","post","26","2444","stimuli/object_01.png","stimuli/object_04.png","post_judgment","432","html-slider-response","3735657","0.0-22.0-1.21"
"8202","post","31","2226","stimuli/object_02.png","stimuli/object_05.png","post_judgment","434","html-slider-response","3738889","0.0-22.0-1.22"
"8202","post","18","2269","stimuli/object_06.png","stimuli/object_09.png","post_judgment","436","html-slider-response","3742161","0.0-22.0-1.23"
"8202","post","20","2197","stimuli/object_03.png","stimuli/object_10.png","post_judgment","438","html-slider-response","3745369","0.0-22.0-1.24"
"8202","post","25","2412","stimuli/object_06.png","stimuli/object_04.png","post_judgment","440","html-slider-response","3748785","0.0-22.0-1.25"
"8202","post","24","4015","stimuli/object_09.png","stimuli/object_05.png","post_judgment","442","html-slider-response","3753807","0.0-22.0-1.26"
"8202","post","22","2221","stimuli/object_01.png","stimuli/object_10.png","post_judgment","444","html-slider-response","3757031","0.0-22.0-1.27"
"8202","post","21","1878","stimuli/object_06.png","stimuli/object_08.png","post_judgment","446","html-slider-response","3759919","0.0-22.0-1.28"
"8202","post","30","1948","stimuli/object_09.png","stimuli/object_07.png","post_judgment","448","html-slider-response","3762879","0.0-22.0-1.29"
"8202","post","23","2175","stimuli/object_01.png","stimuli/object_05.png","post_judgment","450","html-slider-response","3766063","0.0-22.0-1.30"
"8202","post","22","2224","stimuli/object_08.png","stimuli/object_02.png","post_judgment","452","html-slider-response","3769294","0.0-22.0-1.31"
"8202","post","21","2307","stimuli/object_05.png","stimuli/object_07.png","post_judgment","454","html-slider-response","3772606","0.0-22.0-1.32"
"8202","post","21","2043","stimuli/object_06.png","stimuli/object_02.png","post_judgment","456","html-slider-response","3775654","0.0-22.0-1.33"
"8202","post","13","2162","stimuli/object_02.png","stimuli/object_09.png","post_judgment","458","html-slider-response","3778822","0.0-22.0-1.34"
"8202","post","21","1929","stimuli/object_01.png","stimuli/object_08.png","post_judgment","460","html-slider-response","3781757","0.0-22.0-1.35"
"8202","post","21","2031","stimuli/object_07.png","stimuli/object_04.png","post_judgment","462","html-slider-response","3784797","0.0-22.0-1.36"
"8202","post","25","2263","stimuli/object_03.png","stimuli/object_05.png","post_judgment","464","html-slider-response","3788069","0.0-22.0-1.37"
"8202","post","26","2111","stimuli/object_08.png","stimuli/object_10.png","post_judgment","466","html-slider-response","3791190","0.0-22.0-1.38"
"8202","post","22","2086","stimuli/object_03.png","stimuli/object_09.png","post_judgment","468","html-slider-response","3794285","0.0-22.0-1.39"
"8202","post","23","2437","stimuli/object_02.png","stimuli/object_04.png","post_judgment","470","html-slider-response","3797725","0.0-22.0-1.40"
"8202","post","19","2709","stimuli/object_01.png","stimuli/object_07.png","post_judgment","472","html-slider-response","3801436","0.0-22.0-1.41"
"8202","post","25","2287","stimuli/object_04.png","stimuli/object_08.png","post_judgment","474","html-slider-response","3804732","0.0-22.0-1.42"
"8202","post","22","2890","stimuli/object_01.png","stimuli/object_09.png","post_judgment","476","html-slider-response","3808628","0.0-22.0-1.43"
"8202","post","25","2239","stimuli/object_05.png","stimuli/object_08.png","post_judgment","478","html-slider-response","3811875","0.0-22.0-1.44"
"8103","pre","11","7994","stimuli/object_03.png","stimuli/object_02.png","pre_judgment","11","html-slider-response","128765","0.0-5.0-1.0"
"8103","pre","16","6409","stimuli/object_02.png","stimuli/object_05.png","pre_judgment","13","html-slider-response","136181","0.0-5.0-1.1"
"8103","pre","53","5438","stimuli/object_04.png","stimuli/object_09.png","pre_judgment","15","html-slider-response","142628","0.0-5.0-1.2"
"8103","pre","22","6468","stimuli/object_07.png","stimuli/object_03.png","pre_judgment","17","html-slider-response","150108","0.0-5.0-1.3"
"8103","pre","1","9652","stimuli/object_01.png","stimuli/object_08.png","pre_judgment","19","html-slider-response","160772","0.0-5.0-1.4"
"8103","pre","11","4912","stimuli/object_05.png","stimuli/object_08.png","pre_judgment","21","html-slider-response","166690","0.0-5.0-1.5"
"8103","pre","8","6455","stimuli/object_01.png","stimuli/object_05.png","pre_judgment","23","html-slider-response","174154","0.0-5.0-1.6"
"8103","pre","2","7475","stimuli/object_09.png","stimuli/object_02.png","pre_judgment","25","html-slider-response","182633","0.0-5.0-1.7"
"8103","pre","20","5124","stimuli/object_03.png","stimuli/object_09.png","pre_judgment","27","html-slider-response","188761","0.0-5.0-1.8"
"8103","pre","6","6410","stimuli/object_02.png","stimuli/object_07.png","pre_judgment","29","html-slider-response","196177","0.0-5.0-1.9"
"8103","pre","6","7774","stimuli/object_10.png","stimuli/object_09.png","pre_judgment","31","html-slider-response","204960","0.0-5.0-1.10"
"8103","pre","21","5258","stimuli/object_05.png","stimuli/object_03.png","pre_judgment","33","html-slider-response","211223","0.0-5.0-1.11"
"8103","pre","36","5813","stimuli/object_01.png","stimuli/object_02.png","pre_judgment","35","html-slider-response","218047","0.0-5.0-1.12"
"8103","pre","15","5382","stimuli/object_07.png","stimuli/object_04.png","pre_judgment","37","html-slider-response","224438","0.0-5.0-1.13"
"8103","pre","13","5618","stimuli/object_07.png","stimuli/object_05.png","pre_judgment","39","html-slider-response","231062","0.0-5.0-1.14"
"8103","pre","7","7131","stimuli/object_07.png","stimuli/object_10.png","pre_judgment","41","html-slider-response","239205","0.0-5.0-1.15"
"8103","pre","32","7471","stimuli/object_07.png","stimuli/object_06.png","pre_judgment","43","html-slider-response","247685","0.0-5.0-1.16"
"8103","pre","3","5601","stimuli/object_01.png","stimuli/object_10.png","pre_judgment","45","html-slider-response","254292","0.0-5.0-1.17"
"8103","pre","7","6534","stimuli/object_08.png","stimuli/object_10.png","pre_judgment","47","html-slider-response","261835","0.0-5.0-1.18"
"8103","pre","2","4714","stimuli/object_06.png","stimuli/object_09.png","pre_judgment","49","html-slider-response","267555","0.0-5.0-1.19"
"8103","pre","5","4850","stimuli/object_01.png","stimuli/object_09.png","pre_judgment","51","html-slider-response","273411","0.0-5.0-1.20"
"8103","pre","54","4750","stimuli/object_04.png","stimuli/object_06.png","pre_judgment","53","html-slider-response","279171","0.0-5.0-1.21"
"8103","pre","6","3517","stimuli/object_10.png","stimuli/object_03.png","pre_judgment","55","html-slider-response","283698","0.0-5.0-1.22"
"8103","pre","28","6508","stimuli/object_08.png","stimuli/object_02.png","pre_judgment","57","html-slider-response","291218","0.0-5.0-1.23"
"8103","pre","8","5847","stimuli/object_06.png","stimuli/object_05.png","pre_judgment","59","html-slider-response","298073","0.0-5.0-1.24"
"8103","pre","3","4371","stimuli/object_08.png","stimuli/object_09.png","pre_judgment","61","html-slider-response","303448","0.0-5.0-1.25"
"8103","pre","3","3935","stimuli/object_04.png","stimuli/object_10.png","pre_judgment","63","html-slider-response","308392","0.0-5.0-1.26"
"8103","pre","23","4738","stimuli/object_01.png","stimuli/object_06.png","pre_judgment","65","html-slider-response","314136","0.0-5.0-1.27"
"8103","pre","37","3847","stimuli/object_03.png","stimuli/object_08.png","pre_judgment","67","html-slider-response","318991","0.0-5.0-1.28"
"8103","pre","1","3882","stimuli/object_04.png","stimuli/object_08.png","pre_judgment","69","html-slider-response","323879","0.0-5.0-1.29"
"8103","pre","16","4664","stimuli/object_03.png","stimuli/object_01.png","pre_judgment","71","html-slider-response","329551","0.0-5.0-1.30"
"8103","pre","47","8802","stimuli/object_04.png","stimuli/object_03.png","pre_judgment","73","html-slider-response","339358","0.0-5.0-1.31"
"8103","pre","16","6359","stimuli/object_05.png","stimuli/object_04.png","pre_judgment","75","html-slider-response","346725","0.0-5.0-1.32"
"8103","pre","47","3934","stimuli/object_04.png","stimuli/object_01.png","pre_judgment","77","html-slider-response","351669","0.0-5.0-1.33"
"8103","pre","17","3475","stimuli/object_09.png","stimuli/object_05.png","pre_judgment","79","html-slider-response","356149","0.0-5.0-1.34"
"8103","pre","7","4426","stimuli/object_02.png","stimuli/object_10.png","pre_judgment","81","html-slider-response","361581","0.0-5.0-1.35"
"8103","pre","22","4484","stimuli/object_08.png","stimuli/object_06.png","pre_judgment","83","html-slider-response","367068","0.0-5.0-1.36"
"8103","pre","39","4290","stimuli/object_07.png","stimuli/object_08.png","pre_judgment","85","html-slider-response","372364","0.0-5.0-1.37"
"8103","pre","2","3791","stimuli/object_07.png","stimuli/object_09.png","pre_judgment","87","html-slider-response","377163","0.0-5.0-1.38"
"8103","pre","21","4854","stimuli/object_03.png","stimuli/object_06.png","pre_judgment","89","html-slider-response","383019","0.0-5.0-1.39"
"8103","pre","5","4148","stimuli/object_05.png","stimuli/object_10.png","pre_judgment","91","html-slider-response","388171","0.0-5.0-1.40"
"8103","pre","54","5663","stimuli/object_01.png","stimuli/object_07.png","pre_judgment","93","html-slider-response","394841","0.0-5.0-1.41"
"8103","pre","7","4871","stimuli/object_06.png","stimuli/object_10.png","pre_judgment","95","html-slider-response","400722","0.0-5.0-1.42"
"8103","pre","1","4943","stimuli/object_02.png","stimuli/object_04.png","pre_judgment","97","html-slider-response","406673","0.0-5.0-1.43"
"8103","pre","22","4575","stimuli/object_06.png","stimuli/object_02.png","pre_judgment","99","html-slider-response","412257","0.0-5.0-1.44"
"8103","post","100","10932","stimuli/object_03.png","stimuli/object_05.png","post_judgment","394","html-slider-response","3724032","0.0-22.0-1.0"
"8103","post","100","4136","stimuli/object_03.png","stimuli/object_08.png","post_judgment","396","html-slider-response","3729176","0.0-22.0-1.1"
"8103","post","1","6164","stimuli/object_02.png","stimuli/object_03.png","post_judgment","398","html-slider-response","3736343","0.0-22.0-1.2"
"8103","post","100","4522","stimuli/object_08.png","stimuli/object_05.png","post_judgment","400","html-slider-response","3741871","0.0-22.0-1.3"
"8103","post","1","4072","stimuli/object_02.png","stimuli/object_01.png","post_judgment","402","html-slider-response","3746951","0.0-22.0-1.4"
"8103","post","2","3648","stimuli/object_10.png","stimuli/object_01.png","post_judgment","404","html-slider-response","3751607","0.0-22.0-1.5"
"8103","post","1","2957","stimuli/object_10.png","stimuli/object_09.png","post_judgment","406","html-slider-response","3755575","0.0-22.0-1.6"
"8103","post","100","4026","stimuli/object_09.png","stimuli/object_01.png","post_judgment","408","html-slider-response","3760645","0.0-22.0-1.7"
"8103","post","100","3300","stimuli/object_05.png","stimuli/object_01.png","post_judgment","410","html-slider-response","3764949","0.0-22.0-1.8"
"8103","post","1","3044","stimuli/object_06.png","stimuli/object_05.png","post_judgment","412","html-slider-response","3769005","0.0-22.0-1.9"
"8103","post","1","2812","stimuli/object_06.png","stimuli/object_09.png","post_judgment","414","html-slider-response","3772820","0.0-22.0-1.10"
"8103","post","3","4175","stimuli/object_07.png","stimuli/object_01.png","post_judgment","416","html-slider-response","3778004","0.0-22.0-1.11"
"8103","post","100","2771","stimuli/object_07.png","stimuli/object_06.png","post_judgment","418","html-slider-response","3781780","0.0-22.0-1.12"
"8103","post","100","3047","stimuli/object_02.png","stimuli/object_04.png","post_judgment","420","html-slider-response","3785836","0.0-22.0-1.13"
"8103","post","0","3519","stimuli/object_05.png","stimuli/object_10.png","post_judgment","422","html-slider-response","3790363","0.0-22.0-1.14"
"8103","post","100","3243","stimuli/object_04.png","stimuli/object_07.png","post_judgment","424","html-slider-response","3794611","0.0-22.0-1.15"
"8103","post","0","4105","stimuli/object_08.png","stimuli/object_07.png","post_judgment","426","html-slider-response","3799722","0.0-22.0-1.16"
"8103","post","100","2908","stimuli/object_09.png","stimuli/object_03.png","post_judgment","428","html-slider-response","3803635","0.0-22.0-1.17"
"8103","post","1","2835","stimuli/object_09.png","stimuli/object_02.png","post_judgment","430","html-slider-response","3807482","0.0-22.0-1.18"
"8103","post","0","3147","stimuli/object_01.png","stimuli/object_06.png","post_judgment","432","html-slider-response","3811634","0.0-22.0-1.19"
"8103","post","100","3212","stimuli/object_06.png","stimuli/object_10.png","post_judgment","434","html-slider-response","3815858","0.0-22.0-1.20"
"8103","post","1","2264","stimuli/object_10.png","stimuli/object_03.png","post_judgment","436","html-slider-response","3819130","0.0-22.0-1.21"
"8103","post","0","2793","stimuli/object_04.png","stimuli/object_08.png","post_judgment","438","html-slider-response","3822929","0.0-22.0-1.22"
"8103","post","0","2218","stimuli/object_03.png","stimuli/object_07.png","post_judgment","440","html-slider-response","3826153","0.0-22.0-1.23"
"8103","post","100","3155","stimuli/object_02.png","stimuli/object_06.png","post_judgment","442","html-slider-response","3830320","0.0-22.0-1.24"
"8103","post","100","3899","stimuli/object_01.png","stimuli/object_08.png","post_judgment","444","html-slider-response","3835225","0.0-22.0-1.25"
"8103","post","0","2598","stimuli/object_09.png","stimuli/object_04.png","post_judgment","446","html-slider-response","3838832","0.0-22.0-1.26"
"8103","post","0","2222","stimuli/object_05.png","stimuli/object_07.png","post_judgment","448","html-slider-response","3842056","0.0-22.0-1.27"
"8103","post","0","2023","stimuli/object_04.png","stimuli/object_01.png","post_judgment","450","html-slider-response","3845087","0.0-22.0-1.28"
"8103","post","100","2681","stimuli/object_10.png","stimuli/object_04.png","post_judgment","452","html-slider-response","3848776","0.0-22.0-1.29"
"8103","post","0","3423","stimuli/object_08.png","stimuli/object_10.png","post_judgment","454","html-slider-response","3853207","0.0-22.0-1.30"
"8103","post","100","2889","stimuli/object_08.png","stimuli/object_09.png","post_judgment","456","html-slider-response","3857103","0.0-22.0-1.31"
"8103","post","0","5247","stimuli/object_02.png","stimuli/object_08.png","post_judgment","458","html-slider-response","3863358","0.0-22.0-1.32"
"8103","post","0","2507","stimuli/object_09.png","stimuli/object_07.png","post_judgment","460","html-slider-response","3866870","0.0-22.0-1.33"
"8103","post","100","3108","stimuli/object_04.png","stimuli/object_06.png","post_judgment","462","html-slider-response","3870990","0.0-22.0-1.34"
"8103","post","0","2014","stimuli/object_05.png","stimuli/object_04.png","post_judgment","464","html-slider-response","3874005","0.0-22.0-1.35"
"8103","post","100","3057","stimuli/object_02.png","stimuli/object_10.png","post_judgment","466","html-slider-response","3878069","0.0-22.0-1.36"
