"subid","state1","stim_left","stim_right","rt_1","choice1","response1","rt_2","points","state2","stim_state2","stake","score","practice","rews1","rews2","background","high_arm","trial_type","trial_index","time_elapsed","internal_node_id"
"wouter","1","object_09","object_05","351.5","1","j","200","4","1","object_01","1","4","0","4","2","desert_2","1","memory-2step-stake-s","36","283939","0.0-15.0-0.0-0.0"
"wouter","3","object_10","object_06","313.09999990463","5","f","222.60000014305","1","1","object_01","5","9","0","1","1","library_6","1","memory-2step-stake-s","37","292990","0.0-15.0-0.0-0.1"
"wouter","3","object_06","object_10","133.40000009537","5","j","514.70000004768","2","1","object_01","5","19","0","2","0","library_5","1","memory-2step-stake-s","39","303816","0.0-15.0-0.1-0.2"
"wouter","2","object_03","object_07","362.20000004768","3","f","440.5","1","1","object_01","1","20","0","1","4","forest_4","1","memory-2step-stake-s","40","314748","0.0-15.0-0.1-0.3"
"atabk_full_test","4","object_07","object_04","503.30000001192","7","j","531.20000001788","2","1","object_09","1","2","0","2","1","restaurant_1","2","memory-2step-stake-s","129","318501","0.0-18.0-0.0-0.0"
"atabk_full_test","3","object_02","object_01","759.79999998212","6","f","449.39999997616","2","2","object_05","1","4","0","2","2","library_7","2","memory-2step-stake-s","130","327899","0.0-18.0-0.0-0.1"
"atabk_full_test","3","object_01","object_02","1945.6999999881","5","f","447.19999998808","3","1","object_09","5","19","0","3","1","library_8","2","memory-2step-stake-s","131","337391","0.0-18.0-0.0-0.2"
"atabk_full_test","2","object_06","object_08","1157","4","j","438.59999999404","5","2","object_05","5","44","0","1","5","forest_6","2","memory-2step-stake-s","132","347082","0.0-18.0-0.0-0.3"
"atabk_full_test","3","object_02","object_01","1447.8000000119","6","f","330","5","2","object_05","1","49","0","2","5","library_7","2","memory-2step-stake-s","133","356674","0.0-18.0-0.0-0.4"
"atabk_full_test","2","object_06","object_08","1592.6999999881","3","f","404.5","2","1","object_09","5","59","0","2","7","forest_7","2","memory-2step-stake-s","134","366025","0.0-18.0-0.0-0.5"
"atabk_full_test","2","object_06","object_08","648.40000000596","4","j","394.29999998212","9","2","object_05","5","104","0","2","9","forest_8","2","memory-2step-stake-s","135","376097","0.0-18.0-0.0-0.6"
"atabk_full_test","1","object_03","object_10","866.59999999404","2","f","418.59999999404","7","2","object_05","1","111","0","3","7","desert_4","2","memory-2step-stake-s","136","385982","0.0-18.0-0.0-0.7"
"atabk_full_test","4","object_04","object_07","1921.3999999762","8","j","426.59999999404","7","2","object_05","1","118","0","3","7","restaurant_1","2","memory-2step-stake-s","137","395874","0.0-18.0-0.0-0.8"
"atabk_full_test","3","object_02","object_01","1456.6999999881","6","f","407.09999999404","9","2","object_05","1","127","0","3","9","library_8","2","memory-2step-stake-s","138","405957","0.0-18.0-0.0-0.9"
"atabk_full_test","2","object_08","object_06","1172.6999999881","4","f","400.19999998808","6","2","object_05","5","157","0","4","6","forest_4","2","memory-2step-stake-s","139","415721","0.0-18.0-0.0-0.10"
"atabk_full_test","4","object_07","object_04","900.09999999404","8","f","499.20000001788","5","2","object_05","5","182","0","3","5","restaurant_7","2","memory-2step-stake-s","140","425479","0.0-18.0-0.0-0.11"
"atabk_full_test","2","object_06","object_08","950.30000001192","4","j","370","8","2","object_05","5","222","0","4","8","forest_7","2","memory-2step-stake-s","141","435423","0.0-18.0-0.0-0.12"
"atabk_full_test","1","object_03","object_10","670.59999999404","1","j","363.90000000596","5","1","object_09","5","247","0","5","6","desert_6","2","memory-2step-stake-s","142","445047","0.0-18.0-0.0-0.13"
"atabk_full_test","1","object_03","object_10","-1","-1","-1","-1","0","-","0","5","247","0","6","7","desert_7","2","memory-2step-stake-s","143","453076","0.0-18.0-0.0-0.14"
"atabk_full_test","3","object_02","object_01","-1","-1","-1","-1","0","-","0","1","247","0","1","5","library_6","2","memory-2step-stake-s","144","461104","0.0-18.0-0.0-0.15"
"atabk_full_test","2","object_06","object_08","935.59999999404","4","j","449.69999998808","6","2","object_05","5","277","0","4","6","forest_7","2","memory-2step-stake-s","145","470920","0.0-18.0-0.0-0.16"
"atabk_full_test","1","object_10","object_03","1098.900000006","1","f","-1","0","1","object_09","5","277","0","5","5","desert_8","2","memory-2step-stake-s","146","482460","0.0-18.0-0.0-0.17"
"atabk_full_test","4","object_04","object_07","588.69999998808","8","j","-1","0","2","object_05","1","277","0","1","2","restaurant_7","2","memory-2step-stake-s","147","494000","0.0-18.0-0.0-0.18"
"atabk_full_test","3","object_01","object_02","1119.900000006","6","j","886.70000001788","2","2","object_05","1","279","0","0","2","library_8","2","memory-2step-stake-s","148","503834","0.0-18.0-0.0-0.19"
"atabk_full_test","4","object_04","object_07","700.69999998808","7","f","823.80000001192","1","1","object_09","5","284","0","1","1","restaurant_4","2","memory-2step-stake-s","149","513499","0.0-18.0-0.0-0.20"
"atabk_full_test","1","object_03","object_10","1074.8999999762","1","j","889.09999999404","3","1","object_09","1","287","0","3","2","desert_8","2","memory-2step-stake-s","150","523437","0.0-18.0-0.0-0.21"
"atabk_full_test","4","object_07","object_04","604.39999997616","7","j","368.80000001192","3","1","object_09","5","302","0","3","2","restaurant_4","2","memory-2step-stake-s","151","532858","0.0-18.0-0.0-0.22"
"atabk_full_test","3","object_01","object_02","1153.400000006","5","f","404.70000001788","2","1","object_09","1","304","0","2","5","library_8","2","memory-2step-stake-s","152","542210","0.0-18.0-0.0-0.23"
"atabk_full_test","2","object_06","object_08","882.5","4","j","353.40000000596","3","2","object_05","5","319","0","0","3","forest_8","2","memory-2step-stake-s","153","553072","0.0-18.0-0.0-0.24"
"atabk_full_test","2","object_06","object_08","-1","-1","-1","-1","0","-","0","1","319","0","1","1","forest_8","2","memory-2step-stake-s","154","566071","0.0-18.0-0.0-0.25"
"atabk_full_test","2","object_06","object_08","-1","-1","-1","-1","0","-","0","1","319","0","2","3","forest_4","2","memory-2step-stake-s","155","578294","0.0-18.0-0.0-0.26"
"atabk_full_test","1","object_03","object_10","-1","-1","-1","-1","0","-","0","5","319","0","1","2","desert_7","2","memory-2step-stake-s","156","591280","0.0-18.0-0.0-0.27"
"atabk_full_test","1","object_10","object_03","-1","-1","-1","-1","0","-","0","5","319","0","2","4","desert_8","2","memory-2step-stake-s","157","602268","0.0-18.0-0.0-0.28"
"atabk_full_test","2","object_06","object_08","-1","-1","-1","-1","0","-","0","5","319","0","3","3","forest_4","2","memory-2step-stake-s","158","612583","0.0-18.0-0.0-0.29"
"atabk_full_test","2","object_08","object_06","-1","-1","-1","-1","0","-","0","5","319","0","4","7","forest_4","2","memory-2step-stake-s","159","625453","0.0-18.0-0.0-0.30"
"atabk_full_test","2","object_06","object_08","-1","-1","-1","-1","0","-","0","1","319","0","2","9","forest_8","2","memory-2step-stake-s","160","639471","0.0-18.0-0.0-0.31"
"atabk_full_test","2","object_08","object_06","-1","-1","-1","-1","0","-","0","5","319","0","5","8","forest_4","2","memory-2step-stake-s","161","651255","0.0-18.0-0.0-0.32"
"atabk_full_test","1","object_03","object_10","-1","-1","-1","-1","0","-","0","5","319","0","6","7","desert_8","2","memory-2step-stake-s","162","664148","0.0-18.0-0.0-0.33"
"atabk_full_test","1","object_10","object_03","-1","-1","-1","-1","0","-","0","5","319","0","7","5","desert_7","2","memory-2step-stake-s","163","675078","0.0-18.0-0.0-0.34"
"atabk_full_test","1","object_03","object_10","855.19999998808","1","j","568.59999999404","7","1","object_09","5","354","0","7","4","desert_7","2","memory-2step-stake-s","164","685115","0.0-18.0-0.0-0.35"
"atabk_full_test","2","object_08","object_06","1210.599999994","4","f","516","3","2","object_05","5","369","0","6","3","forest_6","2","memory-2step-stake-s","165","696278","0.0-18.0-0.0-0.36"
"atabk_full_test","1","object_10","object_03","-1","-1","-1","-1","0","-","0","5","369","0","8","5","desert_8","2","memory-2step-stake-s","166","710750","0.0-18.0-0.0-0.37"
"atabk_full_test","3","object_01","object_02","1183.599999994","6","j","408.90000000596","6","2","object_05","5","399","0","8","6","library_6","2","memory-2step-stake-s","167","721189","0.0-18.0-0.0-0.38"
"atabk_full_test","1","object_10","object_03","-1","-1","-1","-1","0","-","0","5","399","0","5","5","desert_4","2","memory-2step-stake-s","168","731082","0.0-18.0-0.0-0.39"
"atabk_full_test","4","object_07","object_04","-1","-1","-1","-1","0","-","0","5","399","0","9","8","restaurant_1","2","memory-2step-stake-s","169","742072","0.0-18.0-0.0-0.40"
"atabk_full_test","4","object_07","object_04","380.30000001192","7","j","732.59999999404","6","1","object_09","1","405","0","6","7","restaurant_3","2","memory-2step-stake-s","170","752167","0.0-18.0-0.0-0.41"
"atabk_full_test","4","object_07","object_04","973.5","8","f","436.19999998808","8","2","object_05","5","445","0","4","8","restaurant_1","2","memory-2step-stake-s","171","771335","0.0-18.0-0.0-0.42"
"atabk_full_test","4","object_07","object_04","-1","-1","-1","-1","0","-","0","5","445","0","0","7","restaurant_7","2","memory-2step-stake-s","172","783148","0.0-18.0-0.0-0.43"
"atabk_full_test","1","object_03","object_10","185","1","j","436.70000001788","3","1","object_09","5","460","0","3","6","desert_7","2","memory-2step-stake-s","173","792639","0.0-18.0-0.0-0.44"
"atabk_full_test","2","object_06","object_08","2363.8000000119","3","f","635.90000000596","4","1","object_09","5","480","0","4","9","forest_6","2","memory-2step-stake-s","174","802432","0.0-18.0-0.0-0.45"
"atabk_full_test","1","object_10","object_03","444.69999998808","2","j","447.5","5","2","object_05","5","505","0","6","5","desert_4","2","memory-2step-stake-s","175","812132","0.0-18.0-0.0-0.46"
"atabk_full_test","2","object_08","object_06","1205.400000006","3","j","804.09999999404","3","1","object_09","5","520","0","3","8","forest_6","2","memory-2step-stake-s","176","821989","0.0-18.0-0.0-0.47"
"atabk_full_test","3","object_01","object_02","-1","-1","-1","-1","0","-","0","1","520","0","2","7","library_8","2","memory-2step-stake-s","177","832067","0.0-18.0-0.0-0.48"
"atabk_full_test","1","object_03","object_10","-1","-1","-1","-1","0","-","0","5","520","0","1","8","desert_6","2","memory-2step-stake-s","178","844067","0.0-18.0-0.0-0.49"
"atabk_full_test","4","object_04","object_07","-1","-1","-1","-1","0","-","0","1","520","0","2","6","restaurant_3","2","memory-2step-stake-s","179","856153","0.0-18.0-0.0-0.50"
"atabk_full_test","3","object_02","object_01","-1","-1","-1","-1","0","-","0","1","520","0","0","2","library_7","2","memory-2step-stake-s","180","868067","0.0-18.0-0.0-0.51"
"atabk_full_test","4","object_04","object_07","-1","-1","-1","-1","0","-","0","1","520","0","3","2","restaurant_7","2","memory-2step-stake-s","181","880450","0.0-18.0-0.0-0.52"
"atabk_full_test","3","object_01","object_02","-1","-1","-1","-1","0","-","0","1","520","0","0","3","library_7","2","memory-2step-stake-s","182","892140","0.0-18.0-0.0-0.53"
"atabk_full_test","1","object_03","object_10","-1","-1","-1","-1","0","-","0","1","520","0","4","3","desert_6","2","memory-2step-stake-s","183","904273","0.0-18.0-0.0-0.54"
"atabk_full_test","3","object_02","object_01","-1","-1","-1","-1","0","-","0","1","520","0","6","3","library_8","2","memory-2step-stake-s","184","917066","0.0-18.0-0.0-0.55"
"atabk_full_test","4","object_07","object_04","-1","-1","-1","-1","0","-","0","1","520","0","8","2","restaurant_4","2","memory-2step-stake-s","185","928073","0.0-18.0-0.0-0.56"
"atabk_full_test","1","object_03","object_10","158","1","j","452.09999999404","8","1","object_09","5","560","0","8","0","desert_4","2","memory-2step-stake-s","186","947520","0.0-18.0-0.0-0.57"
"atabk_full_test","3","object_01","object_02","-1","-1","-1","-1","0","-","0","1","560","0","5","1","library_6","2","memory-2step-stake-s","187","961066","0.0-18.0-0.0-0.58"
"atabk_full_test","1","object_03","object_10","-1","-1","-1","-1","0","-","0","5","560","0","6","0","desert_8","2","memory-2step-stake-s","188","971582","0.0-18.0-0.0-0.59"
"atabk_full_test","3","object_02","object_01","355.80000001192","6","f","458.19999998808","3","2","object_05","1","563","0","6","3","library_7","2","memory-2step-stake-s","189","981084","0.0-18.0-0.0-0.60"
"atabk_full_test","3","object_01","object_02","404.09999999404","6","j","631.19999998808","2","2","object_05","5","573","0","8","2","library_4","2","memory-2step-stake-s","190","990668","0.0-18.0-0.0-0.61"
"atabk_full_test","4","object_07","object_04","358.69999998808","7","j","463.5","9","1","object_09","1","582","0","9","3","restaurant_3","2","memory-2step-stake-s","191","1000815","0.0-18.0-0.0-0.62"
"atabk_full_test","4","object_04","object_07","872.80000001192","7","f","1877","7","1","object_09","1","589","0","7","5","restaurant_3","2","memory-2step-stake-s","192","1012158","0.0-18.0-0.0-0.63"
"atabk_full_test","1","object_10","object_03","1309.099999994","2","j","419.19999998808","9","2","object_05","5","634","0","7","9","desert_6","2","memory-2step-stake-s","193","1032544","0.0-18.0-0.0-0.64"
"atabk_full_test","3","object_01","object_02","-1","-1","-1","-1","0","-","0","1","634","0","8","7","library_7","2","memory-2step-stake-s","194","1044325","0.0-18.0-0.0-0.65"
"atabk_full_test","2","object_08","object_06","-1","-1","-1","-1","0","-","0","1","634","0","8","4","forest_7","2","memory-2step-stake-s","195","1054372","0.0-18.0-0.0-0.66"
"atabk_full_test","3","object_02","object_01","293","5","j","477.5","7","1","object_09","1","641","0","7","5","library_8","2","memory-2step-stake-s","196","1064315","0.0-18.0-0.0-0.67"
"atabk_full_test","4","object_04","object_07","941.09999999404","7","f","408.69999998808","6","1","object_09","1","647","0","6","7","restaurant_4","2","memory-2step-stake-s","197","1074078","0.0-18.0-0.0-0.68"
"atabk_full_test","3","object_02","object_01","411.10000002384","5","j","424.90000000596","6","1","object_09","1","653","0","6","4","library_6","2","memory-2step-stake-s","198","1083865","0.0-18.0-0.0-0.69"
"atabk_full_test","1","object_03","object_10","375.40000000596","2","f","936.90000000596","3","2","object_05","5","668","0","6","3","desert_4","2","memory-2step-stake-s","199","1098539","0.0-18.0-0.0-0.70"
"atabk_full_test","3","object_01","object_02","333.09999999404","6","j","447.19999998808","0","2","object_05","1","668","0","5","0","library_7","2","memory-2step-stake-s","200","1108292","0.0-18.0-0.0-0.71"
"atabk_full_test","4","object_07","object_04","388.39999997616","8","f","579.80000001192","1","2","object_05","1","669","0","2","1","restaurant_7","2","memory-2step-stake-s","201","1117714","0.0-18.0-0.0-0.72"
"atabk_full_test","2","object_06","object_08","366.89999997616","4","j","435.40000000596","3","2","object_05","5","684","0","1","3","forest_8","2","memory-2step-stake-s","202","1127205","0.0-18.0-0.0-0.73"
"atabk_full_test","4","object_04","object_07","-1","-1","-1","-1","0","-","0","1","684","0","2","3","restaurant_4","2","memory-2step-stake-s","203","1135233","0.0-18.0-0.0-0.74"
"atabk_full_test","3","object_02","object_01","-1","-1","-1","-1","0","-","0","1","684","0","2","2","library_4","2","memory-2step-stake-s","204","1143256","0.0-18.0-0.0-0.75"
"atabk_full_test","1","object_10","object_03","-1","-1","-1","-1","0","-","0","5","684","0","1","5","desert_8","2","memory-2step-stake-s","205","1151289","0.0-18.0-0.0-0.76"
"atabk_full_test","4","object_07","object_04","-1","-1","-1","-1","0","-","0","1","684","0","0","2","restaurant_7","2","memory-2step-stake-s","206","1159317","0.0-18.0-0.0-0.77"
"atabk_full_test","2","object_08","object_06","-1","-1","-1","-1","0","-","0","5","684","0","0","3","forest_7","2","memory-2step-stake-s","207","1167346","0.0-18.0-0.0-0.78"
"atabk_full_test","2","object_06","object_08","-1","-1","-1","-1","0","-","0","1","684","0","4","2","forest_7","2","memory-2step-stake-s","208","1175374","0.0-18.0-0.0-0.79"
"atabk_full_test","1","object_10","object_03","-1","-1","-1","-1","0","-","0","1","684","0","3","2","desert_7","2","memory-2step-stake-s","209","1183403","0.0-18.0-0.0-0.80"
"atabk_full_test","3","object_02","object_01","-1","-1","-1","-1","0","-","0","1","684","0","3","4","library_4","2","memory-2step-stake-s","210","1191430","0.0-18.0-0.0-0.81"
"atabk_full_test","4","object_07","object_04","-1","-1","-1","-1","0","-","0","1","684","0","1","5","restaurant_4","2","memory-2step-stake-s","211","1199458","0.0-18.0-0.0-0.82"
"atabk_full_test","4","object_07","object_04","-1","-1","-1","-1","0","-","0","1","684","0","2","3","restaurant_7","2","memory-2step-stake-s","212","1207487","0.0-18.0-0.0-0.83"
"atabk_full_test","4","object_07","object_04","-1","-1","-1","-1","0","-","0","1","684","0","1","4","restaurant_7","2","memory-2step-stake-s","213","1215515","0.0-18.0-0.0-0.84"
"atabk_full_test","1","object_03","object_10","-1","-1","-1","-1","0","-","0","5","684","0","0","3","desert_6","2","memory-2step-stake-s","214","1223543","0.0-18.0-0.0-0.85"
"atabk_full_test","4","object_07","object_04","-1","-1","-1","-1","0","-","0","1","684","0","0","4","restaurant_4","2","memory-2step-stake-s","215","1231571","0.0-18.0-0.0-0.86"
"atabk_full_test","4","object_04","object_07","-1","-1","-1","-1","0","-","0","1","684","0","2","2","restaurant_1","2","memory-2step-stake-s","216","1239599","0.0-18.0-0.0-0.87"
"atabk_full_test","4","object_04","object_07","-1","-1","-1","-1","0","-","0","1","684","0","1","1","restaurant_1","2","memory-2step-stake-s","217","1247628","0.0-18.0-0.0-0.88"
"atabk_full_test","1","object_10","object_03","-1","-1","-1","-1","0","-","0","5","684","0","2","2","desert_7","2","memory-2step-stake-s","218","1255656","0.0-18.0-0.0-0.89"
"atabk_full_test","3","object_01","object_02","-1","-1","-1","-1","0","-","0","1","684","0","1","3","library_4","2","memory-2step-stake-s","219","1263684","0.0-18.0-0.0-0.90"
"atabk_full_test","2","object_06","object_08","-1","-1","-1","-1","0","-","0","5","684","0","5","3","forest_4","2","memory-2step-stake-s","220","1271718","0.0-18.0-0.0-0.91"
"atabk_full_test","4","object_07","object_04","-1","-1","-1","-1","0","-","0","5","684","0","8","2","restaurant_7","2","memory-2step-stake-s","221","1279746","0.0-18.0-0.0-0.92"
"atabk_full_test","2","object_08","object_06","-1","-1","-1","-1","0","-","0","5","684","0","5","0","forest_6","2","memory-2step-stake-s","222","1287774","0.0-18.0-0.0-0.93"
"atabk_full_test","3","object_02","object_01","-1","-1","-1","-1","0","-","0","1","684","0","6","1","library_7","2","memory-2step-stake-s","223","1295797","0.0-18.0-0.0-0.94"
"atabk_full_test","1","object_10","object_03","-1","-1","-1","-1","0","-","0","5","684","0","5","1","desert_6","2","memory-2step-stake-s","224","1303830","0.0-18.0-0.0-0.95"
"atabk_full_test","1","object_10","object_03","-1","-1","-1","-1","0","-","0","5","684","0","5","0","desert_4","2","memory-2step-stake-s","225","1313426","0.0-18.0-0.0-0.96"
"atabk_full_test","3","object_01","object_02","-1","-1","-1","-1","0","-","0","1","684","0","6","0","library_7","2","memory-2step-stake-s","226","1326331","0.0-18.0-0.0-0.97"
"atabk_full_test","3","object_02","object_01","-1","-1","-1","-1","0","-","0","1","684","0","5","0","library_8","2","memory-2step-stake-s","227","1340575","0.0-18.0-0.0-0.98"
"atabk_full_test","4","object_04","object_07","-1","-1","-1","-1","0","-","0","1","684","0","5","1","restaurant_1","2","memory-2step-stake-s","228","1350473","0.0-18.0-0.0-0.99"
"atabk_full_test","4","object_07","object_04","146.59999999404","8","f","426.60000002384","1","2","object_05","5","689","0","5","1","restaurant_7","2","memory-2step-stake-s","229","1361055","0.0-18.0-0.0-0.100"
"atabk_full_test","3","object_01","object_02","-1","-1","-1","-1","0","-","0","1","689","0","7","0","library_4","2","memory-2step-stake-s","230","1369084","0.0-18.0-0.0-0.101"
"atabk_full_test","3","object_01","object_02","-1","-1","-1","-1","0","-","0","5","689","0","6","1","library_8","2","memory-2step-stake-s","231","1377118","0.0-18.0-0.0-0.102"
"atabk_full_test","2","object_06","object_08","-1","-1","-1","-1","0","-","0","5","689","0","4","2","forest_4","2","memory-2step-stake-s","232","1385145","0.0-18.0-0.0-0.103"
"atabk_full_test","2","object_06","object_08","-1","-1","-1","-1","0","-","0","5","689","0","5","4","forest_4","2","memory-2step-stake-s","233","1393174","0.0-18.0-0.0-0.104"
"atabk_full_test","4","object_07","object_04","-1","-1","-1","-1","0","-","0","1","689","0","6","5","restaurant_3","2","memory-2step-stake-s","234","1401213","0.0-18.0-0.0-0.105"
"atabk_full_test","4","object_04","object_07","-1","-1","-1","-1","0","-","0","1","689","0","5","4","restaurant_1","2","memory-2step-stake-s","235","1409242","0.0-18.0-0.0-0.106"
"atabk_full_test","2","object_08","object_06","-1","-1","-1","-1","0","-","0","1","689","0","5","2","forest_8","2","memory-2step-stake-s","236","1417276","0.0-18.0-0.0-0.107"
"atabk_full_test","2","object_06","object_08","-1","-1","-1","-1","0","-","0","5","689","0","6","5","forest_6","2","memory-2step-stake-s","237","1425304","0.0-18.0-0.0-0.108"
"atabk_full_test","1","object_03","object_10","-1","-1","-1","-1","0","-","0","5","689","0","8","3","desert_6","2","memory-2step-stake-s","238","1433331","0.0-18.0-0.0-0.109"
"atabk_full_test","2","object_06","object_08","-1","-1","-1","-1","0","-","0","5","689","0","8","5","forest_8","2","memory-2step-stake-s","239","1441361","0.0-18.0-0.0-0.110"
"atabk_full_test","1","object_10","object_03","-1","-1","-1","-1","0","-","0","5","689","0","9","3","desert_4","2","memory-2step-stake-s","240","1449385","0.0-18.0-0.0-0.111"
"atabk_full_test","2","object_06","object_08","-1","-1","-1","-1","0","-","0","5","689","0","6","1","forest_8","2","memory-2step-stake-s","241","1457411","0.0-18.0-0.0-0.112"
"atabk_full_test","3","object_02","object_01","-1","-1","-1","-1","0","-","0","1","689","0","5","0","library_8","2","memory-2step-stake-s","242","1465439","0.0-18.0-0.0-0.113"
"atabk_full_test","4","object_04","object_07","-1","-1","-1","-1","0","-","0","1","689","0","7","3","restaurant_1","2","memory-2step-stake-s","243","1473468","0.0-18.0-0.0-0.114"
"atabk_full_test","2","object_06","object_08","-1","-1","-1","-1","0","-","0","5","689","0","8","2","forest_4","2","memory-2step-stake-s","244","1481496","0.0-18.0-0.0-0.115"
"atabk_full_test","1","object_03","object_10","-1","-1","-1","-1","0","-","0","5","689","0","8","2","desert_8","2","memory-2step-stake-s","245","1489524","0.0-18.0-0.0-0.116"
"atabk_full_test","2","object_08","object_06","-1","-1","-1","-1","0","-","0","5","689","0","7","0","forest_6","2","memory-2step-stake-s","246","1497552","0.0-18.0-0.0-0.117"
"atabk_full_test","2","object_06","object_08","-1","-1","-1","-1","0","-","0","1","689","0","6","1","forest_7","2","memory-2step-stake-s","247","1505580","0.0-18.0-0.0-0.118"
"atabk_full_test","4","object_04","object_07","-1","-1","-1","-1","0","-","0","1","689","0","7","2","restaurant_7","2","memory-2step-stake-s","248","1513607","0.0-18.0-0.0-0.119"
"atabk_full_test","2","object_08","object_06","-1","-1","-1","-1","0","-","0","5","689","0","7","6","forest_7","2","memory-2step-stake-s","249","1521637","0.0-18.0-0.0-0.120"
"atabk_full_test","1","object_10","object_03","-1","-1","-1","-1","0","-","0","5","689","0","9","4","desert_7","2","memory-2step-stake-s","250","1529665","0.0-18.0-0.0-0.121"
"atabk_full_test","1","object_03","object_10","-1","-1","-1","-1","0","-","0","1","689","0","9","3","desert_6","2","memory-2step-stake-s","251","1537693","0.0-18.0-0.0-0.122"
"atabk_full_test","2","object_06","object_08","-1","-1","-1","-1","0","-","0","5","689","0","9","7","forest_7","2","memory-2step-stake-s","252","1545727","0.0-18.0-0.0-0.123"
"atabk_full_test","4","object_04","object_07","2055.5","7","f","564","8","1","object_09","5","729","0","8","7","restaurant_1","2","memory-2step-stake-s","253","1555862","0.0-18.0-0.0-0.124"
"atabk_full_test","3","object_02","object_01","2012.6000000238","5","j","428.5","7","1","object_09","5","764","0","7","7","library_8","2","memory-2step-stake-s","254","1566331","0.0-18.0-0.0-0.125"
"atabk_full_test","1","object_03","object_10","1661.2000000179","1","j","406.10000002384","6","1","object_09","5","794","0","6","4","desert_6","2","memory-2step-stake-s","255","1576104","0.0-18.0-0.0-0.126"
"atabk_full_test","4","object_04","object_07","-1","-1","-1","-1","0","-","0","1","794","0","9","0","restaurant_1","2","memory-2step-stake-s","256","1584132","0.0-18.0-0.0-0.127"
"atabk_full_test","1","object_10","object_03","319","2","j","-1","0","2","object_05","5","794","0","7","3","desert_7","2","memory-2step-stake-s","258","1629654","0.0-18.0-0.1-0.128"
"atabk_full_test","3","object_02","object_01","323.90000000596","6","f","555.19999998808","3","2","object_05","1","797","0","8","3","library_4","2","memory-2step-stake-s","259","1639261","0.0-18.0-0.1-0.129"
"atabk_full_test","4","object_07","object_04","931.5","7","j","490.59999999404","7","1","object_09","1","804","0","7","4","restaurant_3","2","memory-2step-stake-s","260","1649223","0.0-18.0-0.1-0.130"
"atabk_full_test","1","object_03","object_10","478","2","f","470.80000001192","2","2","object_05","1","806","0","5","2","desert_8","2","memory-2step-stake-s","261","1658638","0.0-18.0-0.1-0.131"
"atabk_full_test","3","object_01","object_02","-1","-1","-1","-1","0","-","0","1","806","0","6","2","library_4","2","memory-2step-stake-s","262","1666661","0.0-18.0-0.1-0.132"
"atabk_full_test","3","object_02","object_01","-1","-1","-1","-1","0","-","0","5","806","0","5","4","library_7","2","memory-2step-stake-s","263","1674689","0.0-18.0-0.1-0.133"
"atabk_full_test","3","object_01","object_02","-1","-1","-1","-1","0","-","0","5","806","0","3","6","library_6","2","memory-2step-stake-s","264","1682711","0.0-18.0-0.1-0.134"
"atabk_full_test","1","object_10","object_03","-1","-1","-1","-1","0","-","0","5","806","0","0","8","desert_6","2","memory-2step-stake-s","265","1690739","0.0-18.0-0.1-0.135"
"atabk_full_test","4","object_07","object_04","-1","-1","-1","-1","0","-","0","1","806","0","1","5","restaurant_4","2","memory-2step-stake-s","266","1698768","0.0-18.0-0.1-0.136"
"atabk_full_test","3","object_01","object_02","-1","-1","-1","-1","0","-","0","1","806","0","2","5","library_4","2","memory-2step-stake-s","267","1706801","0.0-18.0-0.1-0.137"
"atabk_full_test","2","object_08","object_06","-1","-1","-1","-1","0","-","0","5","806","0","0","5","forest_8","2","memory-2step-stake-s","268","1714829","0.0-18.0-0.1-0.138"
"atabk_full_test","2","object_06","object_08","-1","-1","-1","-1","0","-","0","1","806","0","1","4","forest_6","2","memory-2step-stake-s","269","1722858","0.0-18.0-0.1-0.139"
"atabk_full_test","3","object_02","object_01","-1","-1","-1","-1","0","-","0","1","806","0","1","3","library_8","2","memory-2step-stake-s","270","1730886","0.0-18.0-0.1-0.140"
"atabk_full_test","2","object_06","object_08","-1","-1","-1","-1","0","-","0","5","806","0","2","3","forest_7","2","memory-2step-stake-s","271","1738914","0.0-18.0-0.1-0.141"
"atabk_full_test","1","object_10","object_03","-1","-1","-1","-1","0","-","0","5","806","0","4","5","desert_8","2","memory-2step-stake-s","272","1746943","0.0-18.0-0.1-0.142"
"atabk_full_test","4","object_07","object_04","-1","-1","-1","-1","0","-","0","1","806","0","4","3","restaurant_3","2","memory-2step-stake-s","273","1754977","0.0-18.0-0.1-0.143"
"atabk_full_test","3","object_02","object_01","-1","-1","-1","-1","0","-","0","5","806","0","6","1","library_4","2","memory-2step-stake-s","274","1763005","0.0-18.0-0.1-0.144"
"atabk_full_test","3","object_01","object_02","-1","-1","-1","-1","0","-","0","1","806","0","5","1","library_8","2","memory-2step-stake-s","275","1771033","0.0-18.0-0.1-0.145"
"atabk_full_test","4","object_07","object_04","-1","-1","-1","-1","0","-","0","1","806","0","5","3","restaurant_1","2","memory-2step-stake-s","276","1779061","0.0-18.0-0.1-0.146"
"atabk_full_test","3","object_02","object_01","-1","-1","-1","-1","0","-","0","1","806","0","6","4","library_4","2","memory-2step-stake-s","277","1787089","0.0-18.0-0.1-0.147"
"atabk_full_test","4","object_07","object_04","-1","-1","-1","-1","0","-","0","1","806","0","6","7","restaurant_3","2","memory-2step-stake-s","278","1795123","0.0-18.0-0.1-0.148"
"atabk_full_test","2","object_06","object_08","-1","-1","-1","-1","0","-","0","5","806","0","9","3","forest_8","2","memory-2step-stake-s","279","1804382","0.0-18.0-0.1-0.149"
"atabk_full_test","3","object_01","object_02","-1","-1","-1","-1","0","-","0","1","806","0","8","2","library_8","2","memory-2step-stake-s","280","1818540","0.0-18.0-0.1-0.150"
"atabk_full_test","4","object_04","object_07","-1","-1","-1","-1","0","-","0","5","806","0","7","2","restaurant_4","2","memory-2step-stake-s","281","1830493","0.0-18.0-0.1-0.151"
"atabk_full_test","2","object_06","object_08","-1","-1","-1","-1","0","-","0","5","806","0","5","0","forest_8","2","memory-2step-stake-s","282","1841208","0.0-18.0-0.1-0.152"
"atabk_full_test","1","object_10","object_03","-1","-1","-1","-1","0","-","0","1","806","0","6","1","desert_8","2","memory-2step-stake-s","283","1851547","0.0-18.0-0.1-0.153"
"atabk_full_test","2","object_08","object_06","311.89999997616","3","j","383.10000002384","6","1","object_09","5","836","0","6","2","forest_7","2","memory-2step-stake-s","284","1861299","0.0-18.0-0.1-0.154"
"atabk_full_test","2","object_06","object_08","-1","-1","-1","-1","0","-","0","5","836","0","5","4","forest_7","2","memory-2step-stake-s","285","1869328","0.0-18.0-0.1-0.155"
"atabk_full_test","2","object_08","object_06","491","3","j","33.09999999404","7","1","object_09","5","871","0","7","2","forest_6","2","memory-2step-stake-s","286","1878830","0.0-18.0-0.1-0.156"
"atabk_full_test","3","object_01","object_02","-1","-1","-1","-1","0","-","0","1","871","0","8","0","library_7","2","memory-2step-stake-s","287","1886858","0.0-18.0-0.1-0.157"
"atabk_full_test","2","object_06","object_08","-1","-1","-1","-1","0","-","0","5","871","0","8","2","forest_7","2","memory-2step-stake-s","288","1894886","0.0-18.0-0.1-0.158"
"atabk_full_test","1","object_03","object_10","-1","-1","-1","-1","0","-","0","5","871","0","6","0","desert_4","2","memory-2step-stake-s","289","1902915","0.0-18.0-0.1-0.159"
"atabk_full_test","4","object_04","object_07","789.09999999404","7","f","405.90000000596","8","1","object_09","5","911","0","8","0","restaurant_7","2","memory-2step-stake-s","290","1912893","0.0-18.0-0.1-0.160"
"atabk_full_test","3","object_01","object_02","-1","-1","-1","-1","0","-","0","5","911","0","7","1","library_6","2","memory-2step-stake-s","291","1920922","0.0-18.0-0.1-0.161"
"atabk_full_test","1","object_10","object_03","-1","-1","-1","-1","0","-","0","1","911","0","6","0","desert_6","2","memory-2step-stake-s","292","1928950","0.0-18.0-0.1-0.162"
"atabk_full_test","2","object_08","object_06","-1","-1","-1","-1","0","-","0","5","911","0","3","4","forest_8","2","memory-2step-stake-s","293","1936978","0.0-18.0-0.1-0.163"
"atabk_full_test","2","object_06","object_08","-1","-1","-1","-1","0","-","0","5","911","0","4","1","forest_4","2","memory-2step-stake-s","294","1948034","0.0-18.0-0.1-0.164"
"atabk_full_test","1","object_10","object_03","387.90000000596","2","j","373.5","2","2","object_05","5","921","0","6","2","desert_4","2","memory-2step-stake-s","295","1957352","0.0-18.0-0.1-0.165"
"atabk_full_test","3","object_01","object_02","-1","-1","-1","-1","0","-","0","5","921","0","7","1","library_6","2","memory-2step-stake-s","296","1965381","0.0-18.0-0.1-0.166"
"atabk_full_test","1","object_10","object_03","-1","-1","-1","-1","0","-","0","5","921","0","7","2","desert_6","2","memory-2step-stake-s","297","1973410","0.0-18.0-0.1-0.167"
"atabk_full_test","2","object_08","object_06","1367.7999999821","3","j","-1","0","1","object_09","1","921","0","7","2","forest_8","2","memory-2step-stake-s","298","1986156","0.0-18.0-0.1-0.168"
"atabk_full_test","1","object_03","object_10","257.09999999404","2","f","501.30000001192","1","2","object_05","1","922","0","6","1","desert_8","2","memory-2step-stake-s","299","1995497","0.0-18.0-0.1-0.169"
"atabk_full_test","4","object_04","object_07","2255.900000006","7","f","422.90000000596","3","1","object_09","1","925","0","3","1","restaurant_4","2","memory-2step-stake-s","300","2004969","0.0-18.0-0.1-0.170"
"atabk_full_test","2","object_08","object_06","-1","-1","-1","-1","0","-","0","5","925","0","4","1","forest_7","2","memory-2step-stake-s","301","2013005","0.0-18.0-0.1-0.171"
"atabk_full_test","1","object_10","object_03","172.70000001788","2","j","404.90000000596","1","2","object_05","5","930","0","1","1","desert_6","2","memory-2step-stake-s","302","2022252","0.0-18.0-0.1-0.172"
"atabk_full_test","1","object_03","object_10","-1","-1","-1","-1","0","-","0","5","930","0","2","1","desert_6","2","memory-2step-stake-s","303","2030286","0.0-18.0-0.1-0.173"
"atabk_full_test","3","object_02","object_01","-1","-1","-1","-1","0","-","0","5","930","0","2","1","library_6","2","memory-2step-stake-s","304","2038319","0.0-18.0-0.1-0.174"
"atabk_full_test","4","object_07","object_04","393.90000000596","7","j","626.59999999404","3","1","object_09","1","933","0","3","1","restaurant_3","2","memory-2step-stake-s","305","2048002","0.0-18.0-0.1-0.175"
"atabk_full_test","3","object_02","object_01","2581.3000000119","6","f","422.79999998212","0","2","object_05","1","933","0","4","0","library_7","2","memory-2step-stake-s","306","2057168","0.0-18.0-0.1-0.176"
"atabk_full_test","4","object_07","object_04","-1","-1","-1","-1","0","-","0","1","933","0","4","1","restaurant_4","2","memory-2step-stake-s","307","2065190","0.0-18.0-0.1-0.177"
"atabk_full_test","1","object_03","object_10","465","1","j","420.89999997616","0","1","object_09","5","933","0","0","2","desert_4","2","memory-2step-stake-s","308","2074351","0.0-18.0-0.1-0.178"
"atabk_full_test","4","object_04","object_07","-1","-1","-1","-1","0","-","0","1","933","0","2","1","restaurant_7","2","memory-2step-stake-s","309","2082385","0.0-18.0-0.1-0.179"
"atabk_full_test","3","object_01","object_02","-1","-1","-1","-1","0","-","0","1","933","0","3","1","library_6","2","memory-2step-stake-s","310","2090407","0.0-18.0-0.1-0.180"
"atabk_full_test","3","object_01","object_02","-1","-1","-1","-1","0","-","0","1","933","0","0","6","library_6","2","memory-2step-stake-s","311","2098435","0.0-18.0-0.1-0.181"
"atabk_full_test","4","object_04","object_07","382.10000002384","8","j","875.90000000596","4","2","object_05","5","953","0","1","4","restaurant_3","2","memory-2step-stake-s","312","2108466","0.0-18.0-0.1-0.182"
"atabk_full_test","3","object_02","object_01","320.60000002384","6","f","472.5","5","2","object_05","1","958","0","1","5","library_6","2","memory-2step-stake-s","313","2118201","0.0-18.0-0.1-0.183"
"atabk_full_test","4","object_04","object_07","-1","-1","-1","-1","0","-","0","1","958","0","3","5","restaurant_3","2","memory-2step-stake-s","314","2126229","0.0-18.0-0.1-0.184"
"atabk_full_test","4","object_04","object_07","-1","-1","-1","-1","0","-","0","1","958","0","1","5","restaurant_3","2","memory-2step-stake-s","315","2134257","0.0-18.0-0.1-0.185"
"atabk_full_test","4","object_07","object_04","1455.7999999821","8","f","432.69999998808","7","2","object_05","1","965","0","2","7","restaurant_4","2","memory-2step-stake-s","316","2144167","0.0-18.0-0.1-0.186"
"atabk_full_test","4","object_04","object_07","-1","-1","-1","-1","0","-","0","1","965","0","5","9","restaurant_4","2","memory-2step-stake-s","317","2152189","0.0-18.0-0.1-0.187"
"atabk_full_test","2","object_06","object_08","452","4","j","399.40000000596","8","2","object_05","5","1005","0","1","8","forest_6","2","memory-2step-stake-s","318","2162156","0.0-18.0-0.1-0.188"
"atabk_full_test","4","object_07","object_04","483.5","8","f","393.5","7","2","object_05","1","1012","0","3","7","restaurant_1","2","memory-2step-stake-s","319","2172019","0.0-18.0-0.1-0.189"
"atabk_full_test","3","object_02","object_01","-1","-1","-1","-1","0","-","0","1","1012","0","4","8","library_4","2","memory-2step-stake-s","320","2180047","0.0-18.0-0.1-0.190"
"atabk_full_test","2","object_06","object_08","-1","-1","-1","-1","0","-","0","5","1012","0","8","8","forest_6","2","memory-2step-stake-s","321","2188075","0.0-18.0-0.1-0.191"
"atabk_full_test","2","object_06","object_08","1009","3","f","-1","0","1","object_09","5","1012","0","2","6","forest_4","2","memory-2step-stake-s","322","2199609","0.0-18.0-0.1-0.192"
"atabk_full_test","4","object_04","object_07","-1","-1","-1","-1","0","-","0","1","1012","0","5","7","restaurant_7","2","memory-2step-stake-s","323","2207638","0.0-18.0-0.1-0.193"
"atabk_full_test","4","object_04","object_07","-1","-1","-1","-1","0","-","0","1","1012","0","1","4","restaurant_7","2","memory-2step-stake-s","324","2215660","0.0-18.0-0.1-0.194"
"atabk_full_test","4","object_04","object_07","-1","-1","-1","-1","0","-","0","1","1012","0","0","6","restaurant_3","2","memory-2step-stake-s","325","2223688","0.0-18.0-0.1-0.195"
"atabk_full_test","4","object_07","object_04","-1","-1","-1","-1","0","-","0","1","1012","0","2","6","restaurant_4","2","memory-2step-stake-s","326","2231716","0.0-18.0-0.1-0.196"
"atabk_full_test","1","object_10","object_03","-1","-1","-1","-1","0","-","0","1","1012","0","7","7","desert_7","2","memory-2step-stake-s","327","2239744","0.0-18.0-0.1-0.197"
"atabk_full_test","2","object_06","object_08","-1","-1","-1","-1","0","-","0","5","1012","0","8","8","forest_6","2","memory-2step-stake-s","328","2247773","0.0-18.0-0.1-0.198"
"atabk_full_test","2","object_06","object_08","-1","-1","-1","-1","0","-","0","5","1012","0","7","8","forest_8","2","memory-2step-stake-s","329","2255801","0.0-18.0-0.1-0.199"
"atabk_full_test","1","object_10","object_03","488.20000001788","2","j","395.5","9","2","object_05","5","1057","0","9","9","desert_8","2","memory-2step-stake-s","330","2265874","0.0-18.0-0.1-0.200"
"atabk_full_test","1","object_10","object_03","-1","-1","-1","-1","0","-","0","1","1057","0","5","8","desert_4","2","memory-2step-stake-s","331","2273901","0.0-18.0-0.1-0.201"
"atabk_full_test","1","object_03","object_10","-1","-1","-1","-1","0","-","0","5","1057","0","3","9","desert_4","2","memory-2step-stake-s","332","2281929","0.0-18.0-0.1-0.202"
"atabk_full_test","3","object_01","object_02","-1","-1","-1","-1","0","-","0","1","1057","0","2","6","library_6","2","memory-2step-stake-s","333","2289956","0.0-18.0-0.1-0.203"
"atabk_full_test","1","object_03","object_10","-1","-1","-1","-1","0","-","0","5","1057","0","2","6","desert_6","2","memory-2step-stake-s","334","2297985","0.0-18.0-0.1-0.204"
"atabk_full_test","2","object_06","object_08","-1","-1","-1","-1","0","-","0","5","1057","0","1","5","forest_4","2","memory-2step-stake-s","335","2306014","0.0-18.0-0.1-0.205"
"atabk_full_test","1","object_10","object_03","-1","-1","-1","-1","0","-","0","5","1057","0","2","7","desert_6","2","memory-2step-stake-s","336","2314048","0.0-18.0-0.1-0.206"
"atabk_full_test","2","object_08","object_06","-1","-1","-1","-1","0","-","0","5","1057","0","1","7","forest_4","2","memory-2step-stake-s","337","2322081","0.0-18.0-0.1-0.207"
"atabk_full_test","3","object_02","object_01","-1","-1","-1","-1","0","-","0","1","1057","0","2","4","library_8","2","memory-2step-stake-s","338","2330110","0.0-18.0-0.1-0.208"
"atabk_full_test","3","object_02","object_01","-1","-1","-1","-1","0","-","0","5","1057","0","1","5","library_7","2","memory-2step-stake-s","339","2338132","0.0-18.0-0.1-0.209"
"atabk_full_test","4","object_04","object_07","-1","-1","-1","-1","0","-","0","1","1057","0","1","5","restaurant_3","2","memory-2step-stake-s","340","2346166","0.0-18.0-0.1-0.210"
"atabk_full_test","1","object_03","object_10","-1","-1","-1","-1","0","-","0","5","1057","0","1","5","desert_4","2","memory-2step-stake-s","341","2354194","0.0-18.0-0.1-0.211"
"atabk_full_test","2","object_08","object_06","-1","-1","-1","-1","0","-","0","1","1057","0","1","5","forest_8","2","memory-2step-stake-s","342","2362222","0.0-18.0-0.1-0.212"
"atabk_full_test","3","object_02","object_01","-1","-1","-1","-1","0","-","0","1","1057","0","2","7","library_4","2","memory-2step-stake-s","343","2370250","0.0-18.0-0.1-0.213"
"atabk_full_test","1","object_03","object_10","-1","-1","-1","-1","0","-","0","5","1057","0","1","3","desert_7","2","memory-2step-stake-s","344","2378273","0.0-18.0-0.1-0.214"
"atabk_full_test","1","object_03","object_10","-1","-1","-1","-1","0","-","0","5","1057","0","2","1","desert_7","2","memory-2step-stake-s","345","2386306","0.0-18.0-0.1-0.215"
"atabk_full_test","2","object_06","object_08","-1","-1","-1","-1","0","-","0","5","1057","0","0","1","forest_4","2","memory-2step-stake-s","346","2394329","0.0-18.0-0.1-0.216"
"atabk_full_test","1","object_03","object_10","-1","-1","-1","-1","0","-","0","5","1057","0","0","1","desert_8","2","memory-2step-stake-s","347","2402357","0.0-18.0-0.1-0.217"
"atabk_full_test","3","object_01","object_02","-1","-1","-1","-1","0","-","0","1","1057","0","2","2","library_4","2","memory-2step-stake-s","348","2410380","0.0-18.0-0.1-0.218"
"atabk_full_test","1","object_10","object_03","-1","-1","-1","-1","0","-","0","5","1057","0","2","3","desert_8","2","memory-2step-stake-s","349","2418402","0.0-18.0-0.1-0.219"
"atabk_full_test","2","object_06","object_08","-1","-1","-1","-1","0","-","0","5","1057","0","2","8","forest_8","2","memory-2step-stake-s","350","2426431","0.0-18.0-0.1-0.220"
"atabk_full_test","3","object_02","object_01","-1","-1","-1","-1","0","-","0","5","1057","0","1","6","library_4","2","memory-2step-stake-s","351","2434459","0.0-18.0-0.1-0.221"
"atabk_full_test","3","object_01","object_02","-1","-1","-1","-1","0","-","0","1","1057","0","3","6","library_7","2","memory-2step-stake-s","352","2444404","0.0-18.0-0.1-0.222"
"atabk_full_test","2","object_08","object_06","-1","-1","-1","-1","0","-","0","1","1057","0","2","8","forest_6","2","memory-2step-stake-s","353","2456302","0.0-18.0-0.1-0.223"
"atabk_full_test","3","object_01","object_02","1491.1000000238","5","f","841.59999999404","4","1","object_09","1","1061","0","4","9","library_4","2","memory-2step-stake-s","354","2466303","0.0-18.0-0.1-0.224"
"atabk_full_test","3","object_02","object_01","-1","-1","-1","-1","0","-","0","1","1061","0","6","7","library_6","2","memory-2step-stake-s","355","2474331","0.0-18.0-0.1-0.225"
"atabk_full_test","3","object_01","object_02","-1","-1","-1","-1","0","-","0","1","1061","0","8","6","library_6","2","memory-2step-stake-s","356","2482365","0.0-18.0-0.1-0.226"
"atabk_full_test","3","object_01","object_02","292.69999998808","5","f","362.20000001788","5","1","object_09","1","1066","0","5","5","library_6","2","memory-2step-stake-s","357","2491983","0.0-18.0-0.1-0.227"
"atabk_full_test","2","object_06","object_08","-1","-1","-1","-1","0","-","0","1","1066","0","9","6","forest_7","2","memory-2step-stake-s","358","2500011","0.0-18.0-0.1-0.228"
"atabk_full_test","1","object_10","object_03","-1","-1","-1","-1","0","-","0","1","1066","0","8","9","desert_7","2","memory-2step-stake-s","359","2508034","0.0-18.0-0.1-0.229"
"atabk_full_test","2","object_06","object_08","-1","-1","-1","-1","0","-","0","5","1066","0","5","6","forest_6","2","memory-2step-stake-s","360","2516056","0.0-18.0-0.1-0.230"
"atabk_full_test","2","object_06","object_08","-1","-1","-1","-1","0","-","0","5","1066","0","4","3","forest_6","2","memory-2step-stake-s","361","2524084","0.0-18.0-0.1-0.231"
"atabk_full_test","1","object_10","object_03","-1","-1","-1","-1","0","-","0","5","1066","0","1","2","desert_8","2","memory-2step-stake-s","362","2532106","0.0-18.0-0.1-0.232"
"atabk_full_test","1","object_10","object_03","-1","-1","-1","-1","0","-","0","5","1066","0","0","1","desert_4","2","memory-2step-stake-s","363","2540135","0.0-18.0-0.1-0.233"
"atabk_full_test","3","object_02","object_01","1101.099999994","6","f","430.29999998212","0","2","object_05","1","1066","0","2","0","library_7","2","memory-2step-stake-s","364","2549301","0.0-18.0-0.1-0.234"
"atabk_full_test","2","object_06","object_08","-1","-1","-1","-1","0","-","0","5","1066","0","2","0","forest_4","2","memory-2step-stake-s","365","2557323","0.0-18.0-0.1-0.235"
"atabk_full_test","4","object_04","object_07","-1","-1","-1","-1","0","-","0","1","1066","0","0","0","restaurant_3","2","memory-2step-stake-s","366","2565351","0.0-18.0-0.1-0.236"
"atabk_full_test","2","object_08","object_06","-1","-1","-1","-1","0","-","0","5","1066","0","1","1","forest_4","2","memory-2step-stake-s","367","2573379","0.0-18.0-0.1-0.237"
"atabk_full_test","2","object_06","object_08","-1","-1","-1","-1","0","-","0","1","1066","0","1","0","forest_6","2","memory-2step-stake-s","368","2581408","0.0-18.0-0.1-0.238"
"atabk_full_test","4","object_04","object_07","-1","-1","-1","-1","0","-","0","1","1066","0","3","1","restaurant_1","2","memory-2step-stake-s","369","2589436","0.0-18.0-0.1-0.239"
"atabk_full_test","3","object_02","object_01","-1","-1","-1","-1","0","-","0","1","1066","0","4","2","library_7","2","memory-2step-stake-s","370","2597464","0.0-18.0-0.1-0.240"
"atabk_full_test","4","object_07","object_04","-1","-1","-1","-1","0","-","0","1","1066","0","3","2","restaurant_1","2","memory-2step-stake-s","371","2605486","0.0-18.0-0.1-0.241"
"atabk_full_test","3","object_01","object_02","1449.6999999881","5","f","670.59999999404","3","1","object_09","1","1069","0","3","2","library_8","2","memory-2step-stake-s","372","2615210","0.0-18.0-0.1-0.242"
"atabk_full_test","4","object_04","object_07","1530.1999999881","8","j","417.70000001788","1","2","object_05","1","1070","0","4","1","restaurant_7","2","memory-2step-stake-s","373","2624468","0.0-18.0-0.1-0.243"
"atabk_full_test","4","object_04","object_07","-1","-1","-1","-1","0","-","0","1","1070","0","3","1","restaurant_4","2","memory-2step-stake-s","374","2632497","0.0-18.0-0.1-0.244"
"atabk_full_test","1","object_03","object_10","-1","-1","-1","-1","0","-","0","5","1070","0","2","2","desert_7","2","memory-2step-stake-s","375","2640525","0.0-18.0-0.1-0.245"
"atabk_full_test","4","object_04","object_07","-1","-1","-1","-1","0","-","0","1","1070","0","5","4","restaurant_1","2","memory-2step-stake-s","376","2648553","0.0-18.0-0.1-0.246"
"atabk_full_test","3","object_02","object_01","-1","-1","-1","-1","0","-","0","5","1070","0","4","1","library_6","2","memory-2step-stake-s","377","2656575","0.0-18.0-0.1-0.247"
"atabk_full_test","1","object_10","object_03","-1","-1","-1","-1","0","-","0","5","1070","0","3","6","desert_4","2","memory-2step-stake-s","378","2664609","0.0-18.0-0.1-0.248"
"atabk_full_test","1","object_10","object_03","-1","-1","-1","-1","0","-","0","5","1070","0","3","5","desert_4","2","memory-2step-stake-s","379","2672637","0.0-18.0-0.1-0.249"
"atabk_full_test","4","object_04","object_07","-1","-1","-1","-1","0","-","0","5","1070","0","0","5","restaurant_3","2","memory-2step-stake-s","380","2680672","0.0-18.0-0.1-0.250"
"atabk_full_test","2","object_06","object_08","-1","-1","-1","-1","0","-","0","5","1070","0","1","5","forest_7","2","memory-2step-stake-s","381","2688700","0.0-18.0-0.1-0.251"
"atabk_full_test","1","object_10","object_03","-1","-1","-1","-1","0","-","0","5","1070","0","1","7","desert_7","2","memory-2step-stake-s","382","2696728","0.0-18.0-0.1-0.252"
"atabk_full_test","3","object_02","object_01","-1","-1","-1","-1","0","-","0","5","1070","0","3","5","library_4","2","memory-2step-stake-s","383","2704756","0.0-18.0-0.1-0.253"
"atabk_full_test","4","object_07","object_04","-1","-1","-1","-1","0","-","0","1","1070","0","3","7","restaurant_4","2","memory-2step-stake-s","384","2712784","0.0-18.0-0.1-0.254"
"atabk_full_test","1","object_03","object_10","-1","-1","-1","-1","0","-","0","1","1070","0","4","6","desert_7","2","memory-2step-stake-s","385","2720818","0.0-18.0-0.1-0.255"
"abkara_demo_test","4","object_02","object_05","739.59999990463","7","j","597.5","2","1","object_04","5","10","0","2","2","restaurant_8","2","memory-2step-stake-s","50","390443","0.0-18.0-0.0-0.0"
"abkara_demo_test","1","object_09","object_01","449.5","2","f","658.09999990463","0","2","object_10","5","10","0","4","0","desert_2","2","memory-2step-stake-s","51","399830","0.0-18.0-0.0-0.1"
"abkara_demo_test","1","object_01","object_09","1356.5","1","f","547.69999980927","6","1","object_04","5","40","0","6","0","desert_2","2","memory-2step-stake-s","53","411627","0.0-18.0-0.1-0.2"
"abkara_demo_test","4","object_02","object_05","822.59999990463","8","f","487.5","2","2","object_10","1","42","0","5","2","restaurant_1","2","memory-2step-stake-s","54","421049","0.0-18.0-0.1-0.3"
"Practice","2","object_02","object_06","2294","4","f","-1","0","2","object_07","5","0","0","1","6","forest_4","2","memory-2step-stake-s","137","1092032","0.0-18.0-0.0-0.0"
"Practice","2","object_06","object_02","715","4","j","483","6","2","object_07","5","30","0","2","6","forest_8","2","memory-2step-stake-s","138","1101941","0.0-18.0-0.0-0.1"
"Practice","4","object_09","object_04","1567","7","j","-1","0","1","object_08","1","30","0","2","4","restaurant_1","2","memory-2step-stake-s","139","1113510","0.0-18.0-0.0-0.2"
"Practice","3","object_05","object_01","1126","5","f","685","2","1","object_08","1","32","0","2","3","library_6","2","memory-2step-stake-s","140","1123159","0.0-18.0-0.0-0.3"
"Practice","3","object_01","object_05","564","5","j","540","1","1","object_08","1","33","0","1","2","library_3","2","memory-2step-stake-s","141","1132559","0.0-18.0-0.0-0.4"
"Practice","2","object_02","object_06","611","4","f","537","4","2","object_07","1","37","0","2","4","forest_8","2","memory-2step-stake-s","142","1142308","0.0-18.0-0.0-0.5"
"Practice","4","object_04","object_09","1148","8","j","604","3","2","object_07","5","52","0","1","3","restaurant_8","2","memory-2step-stake-s","143","1151997","0.0-18.0-0.0-0.6"
"Practice","3","object_01","object_05","947","6","f","571","3","2","object_07","5","67","0","0","3","library_3","2","memory-2step-stake-s","144","1161658","0.0-18.0-0.0-0.7"
"Practice","3","object_05","object_01","1591","5","f","507","1","1","object_08","1","68","0","1","4","library_5","2","memory-2step-stake-s","145","1171037","0.0-18.0-0.0-0.8"
"Practice","3","object_05","object_01","-1","-1","-1","-1","0","-","0","5","68","0","1","4","library_5","2","memory-2step-stake-s","146","1179087","0.0-18.0-0.0-0.9"
"Practice","3","object_01","object_05","545","5","j","-1","0","1","object_08","5","68","0","2","4","library_3","2","memory-2step-stake-s","147","1190646","0.0-18.0-0.0-0.10"
"Practice","1","object_10","object_03","728","2","j","625","3","2","object_07","5","83","0","4","3","desert_8","2","memory-2step-stake-s","148","1200345","0.0-18.0-0.0-0.11"
"Practice","3","object_05","object_01","356","5","f","586","5","1","object_08","1","88","0","5","3","library_7","2","memory-2step-stake-s","149","1210224","0.0-18.0-0.0-0.12"
"Practice","4","object_09","object_04","827","7","j","587","5","1","object_08","1","93","0","5","1","restaurant_7","2","memory-2step-stake-s","150","1220114","0.0-18.0-0.0-0.13"
"Practice","1","object_03","object_10","770","1","j","442","4","1","object_08","5","113","0","4","3","desert_3","2","memory-2step-stake-s","151","1229743","0.0-18.0-0.0-0.14"
"Practice","3","object_01","object_05","459","5","j","652","5","1","object_08","1","118","0","5","2","library_5","2","memory-2step-stake-s","152","1239692","0.0-18.0-0.0-0.15"
"Practice","1","object_03","object_10","525","1","j","389","7","1","object_08","5","153","0","7","5","desert_8","2","memory-2step-stake-s","153","1249602","0.0-18.0-0.0-0.16"
"Practice","1","object_03","object_10","520","1","j","439","7","1","object_08","5","188","0","7","9","desert_1","2","memory-2step-stake-s","154","1259541","0.0-18.0-0.0-0.17"
"Practice","1","object_10","object_03","611","1","f","395","9","1","object_08","5","233","0","9","8","desert_1","2","memory-2step-stake-s","155","1269690","0.0-18.0-0.0-0.18"
"Practice","4","object_09","object_04","733","7","j","414","7","1","object_08","1","240","0","7","9","restaurant_1","2","memory-2step-stake-s","156","1279630","0.0-18.0-0.0-0.19"
"Practice","2","object_02","object_06","785","4","f","786","6","2","object_07","5","270","0","8","6","forest_6","2","memory-2step-stake-s","157","1289819","0.0-18.0-0.0-0.20"
"Practice","4","object_09","object_04","1411","7","j","578","5","1","object_08","5","295","0","5","7","restaurant_2","2","memory-2step-stake-s","158","1299698","0.0-18.0-0.0-0.21"
"Practice","3","object_01","object_05","1251","5","j","779","7","1","object_08","1","302","0","7","6","library_6","2","memory-2step-stake-s","159","1309977","0.0-18.0-0.0-0.22"
"Practice","2","object_02","object_06","604","4","f","690","9","2","object_07","1","311","0","6","9","forest_4","2","memory-2step-stake-s","160","1320417","0.0-18.0-0.0-0.23"
"Practice","1","object_03","object_10","1267","2","f","427","6","2","object_07","5","341","0","9","6","desert_6","2","memory-2step-stake-s","161","1330236","0.0-18.0-0.0-0.24"
"Practice","3","object_05","object_01","944","6","j","447","7","2","object_07","5","376","0","8","7","library_6","2","memory-2step-stake-s","162","1340205","0.0-18.0-0.0-0.25"
"Practice","3","object_01","object_05","750","5","j","397","9","1","object_08","1","385","0","9","3","library_7","2","memory-2step-stake-s","163","1350324","0.0-18.0-0.0-0.26"
"Practice","2","object_02","object_06","726","4","f","422","6","2","object_07","5","415","0","7","6","forest_2","2","memory-2step-stake-s","164","1360154","0.0-18.0-0.0-0.27"
"Practice","2","object_06","object_02","640","4","j","847","6","2","object_07","1","421","0","6","6","forest_8","2","memory-2step-stake-s","165","1370423","0.0-18.0-0.0-0.28"
"Practice","2","object_06","object_02","626","4","j","466","4","2","object_07","1","425","0","5","4","forest_8","2","memory-2step-stake-s","166","1380083","0.0-18.0-0.0-0.29"
"Practice","1","object_03","object_10","1062","2","f","430","4","2","object_07","1","429","0","3","4","desert_3","2","memory-2step-stake-s","167","1389702","0.0-18.0-0.0-0.30"
"Practice","1","object_03","object_10","682","1","j","425","1","1","object_08","5","434","0","1","3","desert_1","2","memory-2step-stake-s","168","1398981","0.0-18.0-0.0-0.31"
"Practice","3","object_01","object_05","689","5","j","745","1","1","object_08","5","439","0","1","5","library_5","2","memory-2step-stake-s","169","1408580","0.0-18.0-0.0-0.32"
"Practice","2","object_06","object_02","947","4","j","612","4","2","object_07","5","459","0","1","4","forest_8","2","memory-2step-stake-s","170","1418370","0.0-18.0-0.0-0.33"
"Practice","1","object_10","object_03","908","2","j","851","0","2","object_07","5","459","0","0","0","desert_1","2","memory-2step-stake-s","171","1427979","0.0-18.0-0.0-0.34"
"Practice","4","object_09","object_04","1186","7","j","858","0","1","object_08","5","459","0","0","2","restaurant_1","2","memory-2step-stake-s","172","1437599","0.0-18.0-0.0-0.35"
"Practice","2","object_06","object_02","750","4","j","542","1","2","object_07","5","464","0","1","1","forest_2","2","memory-2step-stake-s","173","1446997","0.0-18.0-0.0-0.36"
"Practice","4","object_04","object_09","807","7","f","454","1","1","object_08","1","465","0","1","1","restaurant_7","2","memory-2step-stake-s","174","1456308","0.0-18.0-0.0-0.37"
"Practice","3","object_01","object_05","913","6","f","1417","1","2","object_07","1","466","0","3","1","library_6","2","memory-2step-stake-s","175","1466588","0.0-18.0-0.0-0.38"
"Practice","4","object_04","object_09","2607","8","j","703","3","2","object_07","1","469","0","4","3","restaurant_2","2","memory-2step-stake-s","176","1476376","0.0-18.0-0.0-0.39"
"Practice","4","object_04","object_09","841","7","f","249","3","1","object_08","1","472","0","3","3","restaurant_1","2","memory-2step-stake-s","177","1485706","0.0-18.0-0.0-0.40"
"Practice","2","object_06","object_02","598","4","j","558","3","2","object_07","5","487","0","4","3","forest_4","2","memory-2step-stake-s","178","1495346","0.0-18.0-0.0-0.41"
"Practice","4","object_09","object_04","583","7","j","503","6","1","object_08","1","493","0","6","1","restaurant_1","2","memory-2step-stake-s","179","1505255","0.0-18.0-0.0-0.42"
"Practice","1","object_10","object_03","768","2","j","512","1","2","object_07","1","494","0","6","1","desert_3","2","memory-2step-stake-s","180","1514624","0.0-18.0-0.0-0.43"
"Practice","2","object_06","object_02","694","4","j","502","3","2","object_07","1","497","0","3","3","forest_6","2","memory-2step-stake-s","181","1524214","0.0-18.0-0.0-0.44"
"Practice","1","object_03","object_10","704","2","f","528","5","2","object_07","5","522","0","2","5","desert_3","2","memory-2step-stake-s","182","1534043","0.0-18.0-0.0-0.45"
"Practice","1","object_03","object_10","537","1","j","521","3","1","object_08","5","537","0","3","7","desert_3","2","memory-2step-stake-s","183","1543685","0.0-18.0-0.0-0.46"
"Practice","2","object_02","object_06","576","4","f","471","7","2","object_07","5","572","0","3","7","forest_8","2","memory-2step-stake-s","184","1553684","0.0-18.0-0.0-0.47"
"Practice","4","object_09","object_04","624","7","j","455","4","1","object_08","1","576","0","4","9","restaurant_8","2","memory-2step-stake-s","185","1563303","0.0-18.0-0.0-0.48"
"Practice","2","object_02","object_06","572","4","f","835","6","2","object_07","5","606","0","4","6","forest_2","2","memory-2step-stake-s","186","1573542","0.0-18.0-0.0-0.49"
"Practice","1","object_03","object_10","2836","1","j","772","3","1","object_08","5","621","0","3","6","desert_6","2","memory-2step-stake-s","187","1583392","0.0-18.0-0.0-0.50"
"Practice","3","object_05","object_01","970","6","j","529","8","2","object_07","1","629","0","4","8","library_6","2","memory-2step-stake-s","188","1593553","0.0-18.0-0.0-0.51"
"Practice","1","object_03","object_10","2322","1","j","889","7","1","object_08","5","664","0","7","8","desert_6","2","memory-2step-stake-s","189","1603972","0.0-18.0-0.0-0.52"
"Practice","4","object_04","object_09","1093","7","f","404","7","1","object_08","1","671","0","7","7","restaurant_1","2","memory-2step-stake-s","190","1613881","0.0-18.0-0.0-0.53"
"Practice","1","object_03","object_10","694","1","j","540","8","1","object_08","5","711","0","8","5","desert_6","2","memory-2step-stake-s","191","1624041","0.0-18.0-0.0-0.54"
"Practice","3","object_05","object_01","486","6","j","523","2","2","object_07","1","713","0","8","2","library_3","2","memory-2step-stake-s","192","1633541","0.0-18.0-0.0-0.55"
"Practice","2","object_02","object_06","395","4","f","522","6","2","object_07","5","743","0","7","6","forest_2","2","memory-2step-stake-s","193","1643460","0.0-18.0-0.0-0.56"
"Practice","4","object_09","object_04","586","7","j","601","9","1","object_08","1","752","0","9","5","restaurant_2","2","memory-2step-stake-s","194","1653799","0.0-18.0-0.0-0.57"
"Practice","3","object_01","object_05","1190","5","j","735","7","1","object_08","1","759","0","7","8","library_6","2","memory-2step-stake-s","195","1664038","0.0-18.0-0.0-0.58"
"Practice","4","object_04","object_09","765","7","f","845","4","1","object_08","1","763","0","4","6","restaurant_8","2","memory-2step-stake-s","196","1674068","0.0-18.0-0.0-0.59"
"Practice","4","object_09","object_04","536","7","j","509","0","1","object_08","1","763","0","0","7","restaurant_2","2","memory-2step-stake-s","197","1683337","0.0-18.0-0.0-0.60"
"Practice","3","object_05","object_01","794","6","j","578","7","2","object_07","5","798","0","0","7","library_3","2","memory-2step-stake-s","198","1693427","0.0-18.0-0.0-0.61"
"Practice","3","object_05","object_01","528","6","j","607","8","2","object_07","1","806","0","1","8","library_3","2","memory-2step-stake-s","199","1703646","0.0-18.0-0.0-0.62"
"Practice","2","object_06","object_02","748","4","j","545","5","2","object_07","5","831","0","3","5","forest_4","2","memory-2step-stake-s","200","1713505","0.0-18.0-0.0-0.63"
"Practice","3","object_01","object_05","753","6","f","431","1","2","object_07","1","832","0","2","1","library_3","2","memory-2step-stake-s","201","1722795","0.0-18.0-0.0-0.64"
"Practice","3","object_05","object_01","838","6","j","428","2","2","object_07","1","834","0","3","2","library_7","2","memory-2step-stake-s","202","1732213","0.0-18.0-0.0-0.65"
"Practice","3","object_01","object_05","665","6","f","736","0","2","object_07","5","834","0","3","0","library_5","2","memory-2step-stake-s","203","1741713","0.0-18.0-0.0-0.66"
"Practice","2","object_06","object_02","671","4","j","896","1","2","object_07","5","839","0","6","1","forest_6","2","memory-2step-stake-s","204","1751472","0.0-18.0-0.0-0.67"
"Practice","3","object_01","object_05","1801","6","f","920","1","2","object_07","1","840","0","8","1","library_3","2","memory-2step-stake-s","205","1761242","0.0-18.0-0.0-0.68"
"Practice","1","object_10","object_03","811","2","j","450","1","2","object_07","5","845","0","8","1","desert_3","2","memory-2step-stake-s","206","1770561","0.0-18.0-0.0-0.69"
"Practice","3","object_05","object_01","356","6","j","2594","2","2","object_07","1","847","0","9","2","library_5","2","memory-2step-stake-s","207","1782131","0.0-18.0-0.0-0.70"
"Practice","4","object_09","object_04","1402","8","f","448","3","2","object_07","1","850","0","5","3","restaurant_2","2","memory-2step-stake-s","208","1791669","0.0-18.0-0.0-0.71"
"Practice","4","object_04","object_09","542","8","j","660","1","2","object_07","5","855","0","5","1","restaurant_1","2","memory-2step-stake-s","209","1801199","0.0-18.0-0.0-0.72"
"Practice","2","object_06","object_02","1203","4","j","1088","5","2","object_07","5","880","0","2","5","forest_8","2","memory-2step-stake-s","210","1811588","0.0-18.0-0.0-0.73"
"Practice","1","object_10","object_03","781","1","f","1255","1","1","object_08","1","881","0","1","1","desert_3","2","memory-2step-stake-s","211","1821697","0.0-18.0-0.0-0.74"
"Practice","4","object_04","object_09","2408","8","j","-1","0","2","object_07","1","881","0","2","1","restaurant_7","2","memory-2step-stake-s","212","1833257","0.0-18.0-0.0-0.75"
"Practice","4","object_04","object_09","904","7","f","582","2","1","object_08","1","883","0","2","3","restaurant_8","2","memory-2step-stake-s","213","1842816","0.0-18.0-0.0-0.76"
"Practice","4","object_04","object_09","585","8","j","423","1","2","object_07","1","884","0","2","1","restaurant_2","2","memory-2step-stake-s","214","1852105","0.0-18.0-0.0-0.77"
"Practice","4","object_04","object_09","2158","8","j","1075","1","2","object_07","1","885","0","1","1","restaurant_1","2","memory-2step-stake-s","215","1862055","0.0-18.0-0.0-0.78"
"Practice","4","object_09","object_04","752","7","j","440","1","1","object_08","5","890","0","1","2","restaurant_2","2","memory-2step-stake-s","216","1871364","0.0-18.0-0.0-0.79"
"Practice","2","object_06","object_02","722","4","j","552","2","2","object_07","5","900","0","1","2","forest_4","2","memory-2step-stake-s","217","1880884","0.0-18.0-0.0-0.80"
"Practice","2","object_06","object_02","617","3","f","424","2","1","object_08","5","910","0","2","2","forest_8","2","memory-2step-stake-s","218","1890272","0.0-18.0-0.0-0.81"
"Practice","2","object_02","object_06","939","3","j","378","0","1","object_08","5","910","0","0","2","forest_4","2","memory-2step-stake-s","219","1899412","0.0-18.0-0.0-0.82"
"Practice","3","object_05","object_01","807","5","f","390","2","1","object_08","1","912","0","2","2","library_6","2","memory-2step-stake-s","220","1908781","0.0-18.0-0.0-0.83"
"Practice","1","object_03","object_10","750","1","j","427","4","1","object_08","5","932","0","4","0","desert_1","2","memory-2step-stake-s","221","1918410","0.0-18.0-0.0-0.84"
"Practice","3","object_01","object_05","831","6","f","726","0","2","object_07","1","932","0","4","0","library_7","2","memory-2step-stake-s","222","1927890","0.0-18.0-0.0-0.85"
"Practice","4","object_04","object_09","543","8","j","422","1","2","object_07","1","933","0","5","1","restaurant_8","2","memory-2step-stake-s","223","1937170","0.0-18.0-0.0-0.86"
"Practice","2","object_06","object_02","527","3","f","446","2","1","object_08","5","943","0","2","4","forest_2","2","memory-2step-stake-s","224","1946598","0.0-18.0-0.0-0.87"
"Practice","1","object_10","object_03","801","2","j","631","3","2","object_07","5","958","0","2","3","desert_6","2","memory-2step-stake-s","225","1956318","0.0-18.0-0.0-0.88"
"Practice","2","object_06","object_02","745","3","f","607","1","1","object_08","5","963","0","1","5","forest_4","2","memory-2step-stake-s","226","1965787","0.0-18.0-0.0-0.89"
"Practice","4","object_09","object_04","948","7","j","461","2","1","object_08","1","965","0","2","6","restaurant_8","2","memory-2step-stake-s","227","1975226","0.0-18.0-0.0-0.90"
"Practice","4","object_04","object_09","852","8","j","697","4","2","object_07","1","969","0","4","4","restaurant_2","2","memory-2step-stake-s","228","1985126","0.0-18.0-0.0-0.91"
"Practice","3","object_01","object_05","550","5","j","436","5","1","object_08","1","974","0","5","6","library_3","2","memory-2step-stake-s","229","1994908","0.0-18.0-0.0-0.92"
"Practice","4","object_04","object_09","600","8","j","1926","7","2","object_07","1","981","0","6","7","restaurant_1","2","memory-2step-stake-s","230","2006378","0.0-18.0-0.0-0.93"
"Practice","2","object_06","object_02","698","3","f","385","4","1","object_08","5","1001","0","4","7","forest_6","2","memory-2step-stake-s","231","2015957","0.0-18.0-0.0-0.94"
"Practice","1","object_03","object_10","1248","2","f","551","8","2","object_07","5","1041","0","6","8","desert_6","2","memory-2step-stake-s","232","2026116","0.0-18.0-0.0-0.95"
"Practice","4","object_09","object_04","575","7","j","447","6","1","object_08","1","1047","0","6","8","restaurant_2","2","memory-2step-stake-s","233","2035975","0.0-18.0-0.0-0.96"
"Practice","3","object_01","object_05","627","5","j","462","7","1","object_08","5","1082","0","7","6","library_3","2","memory-2step-stake-s","234","2045955","0.0-18.0-0.0-0.97"
"Practice","4","object_04","object_09","735","7","f","413","7","1","object_08","1","1089","0","7","3","restaurant_8","2","memory-2step-stake-s","235","2055903","0.0-18.0-0.0-0.98"
"Practice","4","object_04","object_09","408","8","j","527","4","2","object_07","1","1093","0","6","4","restaurant_1","2","memory-2step-stake-s","236","2065625","0.0-18.0-0.0-0.99"
"Practice","4","object_09","object_04","458","8","f","448","4","2","object_07","1","1097","0","7","4","restaurant_2","2","memory-2step-stake-s","237","2075255","0.0-18.0-0.0-0.100"
"Practice","1","object_10","object_03","456","2","j","574","2","2","object_07","5","1107","0","3","2","desert_8","2","memory-2step-stake-s","238","2084814","0.0-18.0-0.0-0.101"
"Practice","3","object_01","object_05","906","6","f","545","3","2","object_07","1","1110","0","3","3","library_6","2","memory-2step-stake-s","239","2094433","0.0-18.0-0.0-0.102"
"Practice","3","object_01","object_05","405","5","j","555","4","1","object_08","1","1114","0","4","4","library_7","2","memory-2step-stake-s","240","2104172","0.0-18.0-0.0-0.103"
"Practice","1","object_03","object_10","744","2","f","471","4","2","object_07","5","1134","0","6","4","desert_1","2","memory-2step-stake-s","241","2113832","0.0-18.0-0.0-0.104"
"Practice","1","object_10","object_03","724","2","j","402","3","2","object_07","5","1149","0","7","3","desert_1","2","memory-2step-stake-s","242","2123311","0.0-18.0-0.0-0.105"
"Practice","4","object_09","object_04","725","8","f","780","3","2","object_07","1","1152","0","2","3","restaurant_7","2","memory-2step-stake-s","243","2133180","0.0-18.0-0.0-0.106"
"Practice","1","object_10","object_03","623","2","j","1219","1","2","object_07","5","1157","0","3","1","desert_8","2","memory-2step-stake-s","244","2143270","0.0-18.0-0.0-0.107"
"Practice","4","object_04","object_09","629","7","f","818","2","1","object_08","1","1159","0","2","3","restaurant_8","2","memory-2step-stake-s","245","2153058","0.0-18.0-0.0-0.108"
"Practice","4","object_09","object_04","591","7","j","893","4","1","object_08","1","1163","0","4","1","restaurant_1","2","memory-2step-stake-s","246","2163148","0.0-18.0-0.0-0.109"
"Practice","1","object_10","object_03","1093","2","j","971","4","2","object_07","5","1183","0","8","4","desert_8","2","memory-2step-stake-s","247","2173327","0.0-18.0-0.0-0.110"
"Practice","4","object_09","object_04","554","8","f","377","5","2","object_07","1","1188","0","3","5","restaurant_8","2","memory-2step-stake-s","248","2183007","0.0-18.0-0.0-0.111"
"Practice","1","object_03","object_10","617","2","f","591","8","2","object_07","5","1228","0","3","8","desert_3","2","memory-2step-stake-s","249","2193227","0.0-18.0-0.0-0.112"
"Practice","1","object_10","object_03","494","2","j","453","8","2","object_07","5","1268","0","0","8","desert_1","2","memory-2step-stake-s","250","2203306","0.0-18.0-0.0-0.113"
"Practice","3","object_01","object_05","893","6","f","731","8","2","object_07","5","1308","0","0","8","library_5","2","memory-2step-stake-s","251","2213675","0.0-18.0-0.0-0.114"
"Practice","1","object_03","object_10","515","2","f","491","7","2","object_07","1","1315","0","4","7","desert_8","2","memory-2step-stake-s","252","2223684","0.0-18.0-0.0-0.115"
"Practice","2","object_02","object_06","745","3","j","726","3","1","object_08","5","1330","0","3","7","forest_2","2","memory-2step-stake-s","253","2233504","0.0-18.0-0.0-0.116"
"Practice","2","object_06","object_02","701","3","f","532","5","1","object_08","5","1355","0","5","6","forest_2","2","memory-2step-stake-s","254","2243333","0.0-18.0-0.0-0.117"
"Practice","4","object_09","object_04","1303","8","f","477","8","2","object_07","1","1363","0","5","8","restaurant_7","2","memory-2step-stake-s","255","2253442","0.0-18.0-0.0-0.118"
"Practice","3","object_05","object_01","649","6","j","529","7","2","object_07","5","1398","0","5","7","library_3","2","memory-2step-stake-s","256","2263491","0.0-18.0-0.0-0.119"
"Practice","1","object_03","object_10","639","2","f","421","7","2","object_07","5","1433","0","9","7","desert_3","2","memory-2step-stake-s","257","2273430","0.0-18.0-0.0-0.120"
"Practice","2","object_06","object_02","882","3","f","1266","8","1","object_08","5","1473","0","8","9","forest_4","2","memory-2step-stake-s","258","2284310","0.0-18.0-0.0-0.121"
"Practice","1","object_10","object_03","1634","2","j","432","9","2","object_07","5","1518","0","8","9","desert_3","2","memory-2step-stake-s","259","2294489","0.0-18.0-0.0-0.122"
"Practice","2","object_06","object_02","766","3","f","524","9","1","object_08","5","1563","0","9","7","forest_6","2","memory-2step-stake-s","260","2304748","0.0-18.0-0.0-0.123"
"Practice","3","object_01","object_05","787","6","f","631","6","2","object_07","1","1569","0","8","6","library_6","2","memory-2step-stake-s","261","2314788","0.0-18.0-0.0-0.124"
"Practice","3","object_05","object_01","803","6","j","433","9","2","object_07","1","1578","0","7","9","library_7","2","memory-2step-stake-s","262","2324967","0.0-18.0-0.0-0.125"
"Practice","1","object_03","object_10","654","2","f","2717","8","2","object_07","5","1618","0","6","8","desert_8","2","memory-2step-stake-s","263","2337306","0.0-18.0-0.0-0.126"
"Practice","1","object_03","object_10","570","2","f","435","8","2","object_07","5","1658","0","8","8","desert_3","2","memory-2step-stake-s","264","2347376","0.0-18.0-0.0-0.127"
"Practice","3","object_01","object_05","860","5","j","827","6","1","object_08","1","1664","0","6","9","library_7","2","memory-2step-stake-s","266","2362265","0.0-18.0-0.1-0.128"
"Practice","3","object_01","object_05","739","6","f","569","7","2","object_07","1","1671","0","3","7","library_3","2","memory-2step-stake-s","267","2372353","0.0-18.0-0.1-0.129"
"Practice","2","object_02","object_06","624","3","j","634","5","1","object_08","1","1676","0","5","7","forest_8","2","memory-2step-stake-s","268","2382283","0.0-18.0-0.1-0.130"
"Practice","1","object_10","object_03","543","2","j","509","8","2","object_07","5","1716","0","3","8","desert_3","2","memory-2step-stake-s","269","2392422","0.0-18.0-0.1-0.131"
"Practice","4","object_04","object_09","627","7","f","427","2","1","object_08","1","1718","0","2","7","restaurant_7","2","memory-2step-stake-s","270","2401832","0.0-18.0-0.1-0.132"
"Practice","3","object_01","object_05","762","6","f","761","6","2","object_07","1","1724","0","2","6","library_7","2","memory-2step-stake-s","271","2412001","0.0-18.0-0.1-0.133"
"Practice","4","object_04","object_09","1174","8","j","421","8","2","object_07","1","1732","0","1","8","restaurant_7","2","memory-2step-stake-s","272","2422050","0.0-18.0-0.1-0.134"
"Practice","3","object_05","object_01","1389","5","f","635","1","1","object_08","1","1733","0","1","9","library_5","2","memory-2step-stake-s","273","2431549","0.0-18.0-0.1-0.135"
"Practice","2","object_02","object_06","632","3","j","902","3","1","object_08","5","1748","0","3","7","forest_8","2","memory-2step-stake-s","274","2441570","0.0-18.0-0.1-0.136"
"Practice","4","object_09","object_04","610","7","j","791","0","1","object_08","1","1748","0","0","8","restaurant_8","2","memory-2step-stake-s","275","2451121","0.0-18.0-0.1-0.137"
"Practice","4","object_04","object_09","708","7","f","993","2","1","object_08","5","1758","0","2","8","restaurant_8","2","memory-2step-stake-s","276","2461090","0.0-18.0-0.1-0.138"
"Practice","4","object_04","object_09","681","8","j","1079","6","2","object_07","1","1764","0","0","6","restaurant_2","2","memory-2step-stake-s","277","2471590","0.0-18.0-0.1-0.139"
"Practice","4","object_09","object_04","925","7","j","996","3","1","object_08","5","1779","0","3","6","restaurant_7","2","memory-2step-stake-s","278","2481689","0.0-18.0-0.1-0.140"
"Practice","1","object_10","object_03","2050","2","j","-1","0","2","object_07","5","1779","0","1","6","desert_8","2","memory-2step-stake-s","279","2493228","0.0-18.0-0.1-0.141"
"Practice","2","object_02","object_06","750","3","j","676","1","1","object_08","1","1780","0","1","4","forest_6","2","memory-2step-stake-s","280","2502777","0.0-18.0-0.1-0.142"
"Practice","3","object_01","object_05","631","6","f","1161","3","2","object_07","1","1783","0","2","3","library_7","2","memory-2step-stake-s","281","2513016","0.0-18.0-0.1-0.143"
"Practice","1","object_03","object_10","1191","2","f","1927","3","2","object_07","5","1798","0","1","3","desert_8","2","memory-2step-stake-s","282","2524017","0.0-18.0-0.1-0.144"
"Practice","3","object_05","object_01","558","6","j","910","4","2","object_07","1","1802","0","0","4","library_5","2","memory-2step-stake-s","283","2534127","0.0-18.0-0.1-0.145"
"Practice","3","object_01","object_05","1841","6","f","2736","7","2","object_07","1","1809","0","0","7","library_7","2","memory-2step-stake-s","284","2546386","0.0-18.0-0.1-0.146"
"Practice","1","object_03","object_10","597","2","f","636","7","2","object_07","1","1816","0","1","7","desert_6","2","memory-2step-stake-s","285","2556524","0.0-18.0-0.1-0.147"
"Practice","2","object_02","object_06","657","3","j","431","4","1","object_08","5","1836","0","4","8","forest_4","2","memory-2step-stake-s","286","2566154","0.0-18.0-0.1-0.148"
"Practice","4","object_09","object_04","-1","-1","-1","-1","0","-","0","1","1836","0","1","7","restaurant_7","2","memory-2step-stake-s","287","2574214","0.0-18.0-0.1-0.149"
"Practice","4","object_09","object_04","1062","7","j","701","1","1","object_08","1","1837","0","1","4","restaurant_8","2","memory-2step-stake-s","288","2583783","0.0-18.0-0.1-0.150"
"Practice","2","object_02","object_06","452","3","j","1170","0","1","object_08","5","1837","0","0","2","forest_8","2","memory-2step-stake-s","289","2593722","0.0-18.0-0.1-0.151"
"Practice","1","object_03","object_10","1616","1","j","983","0","1","object_08","5","1837","0","0","3","desert_8","2","memory-2step-stake-s","290","2603451","0.0-18.0-0.1-0.152"
"Practice","2","object_02","object_06","1030","3","j","389","0","1","object_08","5","1837","0","0","3","forest_4","2","memory-2step-stake-s","291","2612600","0.0-18.0-0.1-0.153"
"Practice","3","object_05","object_01","673","6","j","503","6","2","object_07","5","1867","0","2","6","library_7","2","memory-2step-stake-s","292","2622520","0.0-18.0-0.1-0.154"
"Practice","2","object_02","object_06","393","4","f","1095","8","2","object_07","5","1907","0","2","8","forest_4","2","memory-2step-stake-s","293","2633249","0.0-18.0-0.1-0.155"
"Practice","1","object_10","object_03","528","2","j","887","4","2","object_07","5","1927","0","4","4","desert_6","2","memory-2step-stake-s","294","2643319","0.0-18.0-0.1-0.156"
"Practice","2","object_02","object_06","704","3","j","1223","6","1","object_08","5","1957","0","6","5","forest_2","2","memory-2step-stake-s","295","2653938","0.0-18.0-0.1-0.157"
"Practice","3","object_01","object_05","804","6","f","891","1","2","object_07","5","1962","0","8","1","library_6","2","memory-2step-stake-s","296","2663688","0.0-18.0-0.1-0.158"
"Practice","4","object_09","object_04","702","7","j","692","9","1","object_08","1","1971","0","9","4","restaurant_8","2","memory-2step-stake-s","297","2674127","0.0-18.0-0.1-0.159"
"Practice","2","object_02","object_06","903","3","j","406","9","1","object_08","5","2016","0","9","5","forest_6","2","memory-2step-stake-s","298","2684256","0.0-18.0-0.1-0.160"
"Practice","2","object_02","object_06","549","3","j","692","7","1","object_08","5","2051","0","7","6","forest_8","2","memory-2step-stake-s","299","2694466","0.0-18.0-0.1-0.161"
"Practice","3","object_05","object_01","522","6","j","514","5","2","object_07","1","2056","0","6","5","library_3","2","memory-2step-stake-s","300","2704265","0.0-18.0-0.1-0.162"
"Practice","1","object_03","object_10","602","1","j","953","7","1","object_08","1","2063","0","7","6","desert_6","2","memory-2step-stake-s","301","2714724","0.0-18.0-0.1-0.163"
"Practice","2","object_06","object_02","862","3","f","503","7","1","object_08","5","2098","0","7","6","forest_6","2","memory-2step-stake-s","302","2724743","0.0-18.0-0.1-0.164"
"Practice","2","object_06","object_02","633","3","f","424","4","1","object_08","5","2118","0","4","8","forest_6","2","memory-2step-stake-s","303","2734363","0.0-18.0-0.1-0.165"
"Practice","1","object_10","object_03","573","2","j","515","7","2","object_07","1","2125","0","8","7","desert_1","2","memory-2step-stake-s","304","2744412","0.0-18.0-0.1-0.166"
"Practice","1","object_03","object_10","507","2","f","418","3","2","object_07","5","2140","0","8","3","desert_3","2","memory-2step-stake-s","305","2753922","0.0-18.0-0.1-0.167"
"Practice","1","object_10","object_03","375","2","j","942","0","2","object_07","5","2140","0","8","0","desert_6","2","memory-2step-stake-s","306","2763621","0.0-18.0-0.1-0.168"
"Practice","3","object_01","object_05","1265","5","j","825","9","1","object_08","5","2185","0","9","5","library_7","2","memory-2step-stake-s","307","2774190","0.0-18.0-0.1-0.169"
"Practice","4","object_04","object_09","656","7","f","391","9","1","object_08","5","2230","0","9","5","restaurant_1","2","memory-2step-stake-s","308","2784319","0.0-18.0-0.1-0.170"
"Practice","4","object_04","object_09","405","7","f","381","8","1","object_08","1","2238","0","8","3","restaurant_7","2","memory-2step-stake-s","309","2794330","0.0-18.0-0.1-0.171"
"Practice","3","object_05","object_01","491","6","j","370","3","2","object_07","1","2241","0","7","3","library_3","2","memory-2step-stake-s","310","2803788","0.0-18.0-0.1-0.172"
"Practice","2","object_06","object_02","623","3","f","374","7","1","object_08","5","2276","0","7","0","forest_6","2","memory-2step-stake-s","311","2813667","0.0-18.0-0.1-0.173"
"Practice","3","object_01","object_05","448","5","j","414","6","1","object_08","1","2282","0","6","0","library_7","2","memory-2step-stake-s","312","2823497","0.0-18.0-0.1-0.174"
"Practice","1","object_10","object_03","521","2","j","440","2","2","object_07","1","2284","0","6","2","desert_8","2","memory-2step-stake-s","313","2832916","0.0-18.0-0.1-0.175"
"Practice","3","object_01","object_05","1549","6","f","436","1","2","object_07","1","2285","0","6","1","library_6","2","memory-2step-stake-s","314","2842215","0.0-18.0-0.1-0.176"
"Practice","4","object_04","object_09","433","8","j","401","3","2","object_07","1","2288","0","5","3","restaurant_8","2","memory-2step-stake-s","315","2851684","0.0-18.0-0.1-0.177"
"Practice","1","object_10","object_03","1820","2","j","714","3","2","object_07","5","2303","0","7","3","desert_3","2","memory-2step-stake-s","316","2861484","0.0-18.0-0.1-0.178"
"Practice","4","object_04","object_09","444","7","f","419","9","1","object_08","1","2312","0","9","1","restaurant_7","2","memory-2step-stake-s","317","2871623","0.0-18.0-0.1-0.179"
"Practice","4","object_09","object_04","448","7","j","382","9","1","object_08","1","2321","0","9","1","restaurant_1","2","memory-2step-stake-s","318","2881733","0.0-18.0-0.1-0.180"
"Practice","2","object_02","object_06","626","3","j","384","9","1","object_08","5","2366","0","9","2","forest_4","2","memory-2step-stake-s","319","2891893","0.0-18.0-0.1-0.181"
"Practice","3","object_05","object_01","617","6","j","495","4","2","object_07","5","2386","0","9","4","library_6","2","memory-2step-stake-s","320","2901574","0.0-18.0-0.1-0.182"
"Practice","1","object_10","object_03","439","1","f","373","8","1","object_08","5","2426","0","8","4","desert_1","2","memory-2step-stake-s","321","2911583","0.0-18.0-0.1-0.183"
"Practice","1","object_03","object_10","612","2","f","387","5","2","object_07","1","2431","0","9","5","desert_3","2","memory-2step-stake-s","322","2921273","0.0-18.0-0.1-0.184"
"Practice","1","object_10","object_03","491","2","j","404","6","2","object_07","5","2461","0","5","6","desert_6","2","memory-2step-stake-s","323","2931082","0.0-18.0-0.1-0.185"
"Practice","1","object_03","object_10","1032","1","j","407","1","1","object_08","5","2466","0","1","6","desert_6","2","memory-2step-stake-s","324","2940362","0.0-18.0-0.1-0.186"
"Practice","4","object_04","object_09","745","7","f","503","5","1","object_08","5","2491","0","5","8","restaurant_2","2","memory-2step-stake-s","325","2950170","0.0-18.0-0.1-0.187"
"Practice","4","object_04","object_09","663","8","j","884","9","2","object_07","1","2500","0","7","9","restaurant_8","2","memory-2step-stake-s","326","2960790","0.0-18.0-0.1-0.188"
"Practice","1","object_10","object_03","611","2","j","425","8","2","object_07","5","2540","0","7","8","desert_8","2","memory-2step-stake-s","327","2970841","0.0-18.0-0.1-0.189"
"Practice","1","object_03","object_10","640","2","f","574","8","2","object_07","5","2580","0","9","8","desert_8","2","memory-2step-stake-s","328","2981020","0.0-18.0-0.1-0.190"
"Practice","1","object_03","object_10","653","1","j","470","9","1","object_08","5","2625","0","9","9","desert_6","2","memory-2step-stake-s","329","2991208","0.0-18.0-0.1-0.191"
"Practice","2","object_06","object_02","629","3","f","443","8","1","object_08","5","2665","0","8","8","forest_4","2","memory-2step-stake-s","330","3001268","0.0-18.0-0.1-0.192"
"Practice","3","object_01","object_05","457","5","j","496","8","1","object_08","1","2673","0","8","7","library_6","2","memory-2step-stake-s","331","3011397","0.0-18.0-0.1-0.193"
"Practice","2","object_02","object_06","551","3","j","430","6","1","object_08","5","2703","0","6","9","forest_2","2","memory-2step-stake-s","332","3021237","0.0-18.0-0.1-0.194"
"Practice","4","object_04","object_09","424","8","j","573","9","2","object_07","1","2712","0","6","9","restaurant_2","2","memory-2step-stake-s","333","3031546","0.0-18.0-0.1-0.195"
"Practice","4","object_04","object_09","953","8","j","631","6","2","object_07","1","2718","0","5","6","restaurant_2","2","memory-2step-stake-s","334","3041585","0.0-18.0-0.1-0.196"
"Practice","4","object_09","object_04","521","7","j","447","3","1","object_08","1","2721","0","3","7","restaurant_7","2","memory-2step-stake-s","335","3051124","0.0-18.0-0.1-0.197"
"Practice","1","object_03","object_10","2094","2","f","566","6","2","object_07","5","2751","0","4","6","desert_8","2","memory-2step-stake-s","336","3061094","0.0-18.0-0.1-0.198"
"Practice","3","object_05","object_01","868","6","j","420","4","2","object_07","5","2771","0","4","4","library_6","2","memory-2step-stake-s","337","3070684","0.0-18.0-0.1-0.199"
"Practice","1","object_10","object_03","471","1","f","759","5","1","object_08","5","2796","0","5","8","desert_1","2","memory-2step-stake-s","338","3080733","0.0-18.0-0.1-0.200"
"Practice","1","object_10","object_03","995","2","j","817","7","2","object_07","1","2803","0","1","7","desert_1","2","memory-2step-stake-s","339","3091062","0.0-18.0-0.1-0.201"
"Practice","3","object_05","object_01","562","6","j","648","7","2","object_07","1","2810","0","0","7","library_7","2","memory-2step-stake-s","340","3101231","0.0-18.0-0.1-0.202"
"Practice","1","object_03","object_10","1152","1","j","974","1","1","object_08","1","2811","0","1","7","desert_1","2","memory-2step-stake-s","341","3111071","0.0-18.0-0.1-0.203"
"Practice","2","object_02","object_06","576","3","j","814","3","1","object_08","5","2826","0","3","8","forest_4","2","memory-2step-stake-s","342","3120960","0.0-18.0-0.1-0.204"
"Practice","4","object_04","object_09","-1","-1","-1","-1","0","-","0","5","2826","0","2","8","restaurant_2","2","memory-2step-stake-s","343","3129009","0.0-18.0-0.1-0.205"
"Practice","4","object_09","object_04","653","7","j","828","3","1","object_08","1","2829","0","3","5","restaurant_1","2","memory-2step-stake-s","344","3138909","0.0-18.0-0.1-0.206"
"Practice","2","object_06","object_02","601","4","j","1127","1","2","object_07","5","2834","0","1","1","forest_2","2","memory-2step-stake-s","345","3148907","0.0-18.0-0.1-0.207"
"Practice","3","object_01","object_05","416","6","f","487","2","2","object_07","1","2836","0","3","2","library_5","2","memory-2step-stake-s","346","3158377","0.0-18.0-0.1-0.208"
"Practice","3","object_05","object_01","418","6","j","504","5","2","object_07","5","2861","0","2","5","library_3","2","memory-2step-stake-s","347","3168176","0.0-18.0-0.1-0.209"
"Practice","3","object_01","object_05","529","6","f","432","2","2","object_07","5","2871","0","1","2","library_6","2","memory-2step-stake-s","348","3177575","0.0-18.0-0.1-0.210"
"Practice","3","object_01","object_05","554","5","j","344","1","1","object_08","1","2872","0","1","0","library_5","2","memory-2step-stake-s","349","3186785","0.0-18.0-0.1-0.211"
"Practice","4","object_04","object_09","904","8","j","462","1","2","object_07","1","2873","0","0","1","restaurant_1","2","memory-2step-stake-s","350","3196115","0.0-18.0-0.1-0.212"
"Practice","1","object_03","object_10","709","2","f","677","1","2","object_07","5","2878","0","3","1","desert_6","2","memory-2step-stake-s","351","3205654","0.0-18.0-0.1-0.213"
"Practice","2","object_02","object_06","546","3","j","872","3","1","object_08","5","2893","0","3","1","forest_4","2","memory-2step-stake-s","352","3215603","0.0-18.0-0.1-0.214"
"Practice","2","object_06","object_02","699","4","j","433","2","2","object_07","5","2903","0","2","2","forest_8","2","memory-2step-stake-s","353","3225012","0.0-18.0-0.1-0.215"
"Practice","3","object_05","object_01","594","5","f","401","3","1","object_08","1","2906","0","3","2","library_5","2","memory-2step-stake-s","354","3234502","0.0-18.0-0.1-0.216"
"Practice","2","object_02","object_06","832","4","f","397","3","2","object_07","5","2921","0","2","3","forest_2","2","memory-2step-stake-s","355","3243991","0.0-18.0-0.1-0.217"
"Practice","2","object_06","object_02","621","4","j","412","1","2","object_07","5","2926","0","2","1","forest_6","2","memory-2step-stake-s","356","3253271","0.0-18.0-0.1-0.218"
"Practice","1","object_10","object_03","365","1","f","381","0","1","object_08","5","2926","0","0","4","desert_8","2","memory-2step-stake-s","357","3262391","0.0-18.0-0.1-0.219"
"Practice","2","object_06","object_02","333","4","j","426","5","2","object_07","5","2951","0","1","5","forest_2","2","memory-2step-stake-s","358","3272120","0.0-18.0-0.1-0.220"
"Practice","1","object_10","object_03","635","2","j","377","5","2","object_07","5","2976","0","1","5","desert_1","2","memory-2step-stake-s","359","3281800","0.0-18.0-0.1-0.221"
"Practice","2","object_06","object_02","372","3","f","689","2","1","object_08","5","2986","0","2","6","forest_2","2","memory-2step-stake-s","360","3291469","0.0-18.0-0.1-0.222"
"Practice","4","object_04","object_09","341","8","j","443","6","2","object_07","1","2992","0","2","6","restaurant_8","2","memory-2step-stake-s","361","3301298","0.0-18.0-0.1-0.223"
"Practice","1","object_03","object_10","710","1","j","405","4","1","object_08","5","3012","0","4","7","desert_8","2","memory-2step-stake-s","362","3310887","0.0-18.0-0.1-0.224"
"Practice","3","object_01","object_05","481","6","f","616","7","2","object_07","1","3019","0","3","7","library_5","2","memory-2step-stake-s","363","3321007","0.0-18.0-0.1-0.225"
"Practice","4","object_09","object_04","1153","7","j","726","4","1","object_08","1","3023","0","4","7","restaurant_7","2","memory-2step-stake-s","364","3330936","0.0-18.0-0.1-0.226"
"Practice","2","object_06","object_02","1415","4","j","1112","5","2","object_07","5","3048","0","4","5","forest_6","2","memory-2step-stake-s","365","3341315","0.0-18.0-0.1-0.227"
"Practice","2","object_02","object_06","626","3","j","568","5","1","object_08","5","3073","0","5","5","forest_6","2","memory-2step-stake-s","366","3351226","0.0-18.0-0.1-0.228"
"Practice","3","object_01","object_05","372","6","f","553","3","2","object_07","1","3076","0","5","3","library_7","2","memory-2step-stake-s","367","3360847","0.0-18.0-0.1-0.229"
"Practice","2","object_06","object_02","398","4","j","340","7","2","object_07","5","3111","0","5","7","forest_4","2","memory-2step-stake-s","368","3370726","0.0-18.0-0.1-0.230"
"Practice","2","object_02","object_06","581","3","j","396","6","1","object_08","5","3141","0","6","5","forest_2","2","memory-2step-stake-s","369","3380536","0.0-18.0-0.1-0.231"
"Practice","4","object_09","object_04","467","7","j","418","3","1","object_08","1","3144","0","3","5","restaurant_2","2","memory-2step-stake-s","370","3390045","0.0-18.0-0.1-0.232"
"Practice","3","object_05","object_01","438","5","f","387","3","1","object_08","1","3147","0","3","0","library_5","2","memory-2step-stake-s","371","3399514","0.0-18.0-0.1-0.233"
"Practice","3","object_01","object_05","431","5","j","471","4","1","object_08","1","3151","0","4","2","library_7","2","memory-2step-stake-s","372","3409183","0.0-18.0-0.1-0.234"
"Practice","2","object_02","object_06","538","3","j","366","2","1","object_08","5","3161","0","2","4","forest_8","2","memory-2step-stake-s","373","3418533","0.0-18.0-0.1-0.235"
"Practice","3","object_05","object_01","587","5","f","491","3","1","object_08","1","3164","0","3","3","library_3","2","memory-2step-stake-s","374","3428094","0.0-18.0-0.1-0.236"
"Practice","4","object_04","object_09","330","8","j","524","5","2","object_07","1","3169","0","1","5","restaurant_1","2","memory-2step-stake-s","375","3437923","0.0-18.0-0.1-0.237"
"Practice","4","object_09","object_04","293","8","f","426","4","2","object_07","1","3173","0","2","4","restaurant_7","2","memory-2step-stake-s","376","3447552","0.0-18.0-0.1-0.238"
"Practice","2","object_02","object_06","309","3","j","398","2","1","object_08","1","3175","0","2","2","forest_6","2","memory-2step-stake-s","377","3456932","0.0-18.0-0.1-0.239"
"Practice","3","object_05","object_01","395","5","f","682","0","1","object_08","1","3175","0","0","5","library_5","2","memory-2step-stake-s","378","3466361","0.0-18.0-0.1-0.240"
"Practice","1","object_03","object_10","381","1","j","1785","0","1","object_08","5","3175","0","0","4","desert_1","2","memory-2step-stake-s","379","3476910","0.0-18.0-0.1-0.241"
"Practice","2","object_02","object_06","359","4","f","397","4","2","object_07","5","3195","0","1","4","forest_2","2","memory-2step-stake-s","380","3486499","0.0-18.0-0.1-0.242"
"Practice","2","object_06","object_02","426","4","j","607","7","2","object_07","5","3230","0","2","7","forest_8","2","memory-2step-stake-s","381","3496599","0.0-18.0-0.1-0.243"
"Practice","2","object_02","object_06","437","3","j","338","4","1","object_08","5","3250","0","4","7","forest_6","2","memory-2step-stake-s","382","3506138","0.0-18.0-0.1-0.244"
"Practice","2","object_02","object_06","72","4","f","1238","5","2","object_07","5","3275","0","4","5","forest_6","2","memory-2step-stake-s","383","3516667","0.0-18.0-0.1-0.245"
"Practice","1","object_03","object_10","295","1","j","469","4","1","object_08","5","3295","0","4","6","desert_6","2","memory-2step-stake-s","384","3526337","0.0-18.0-0.1-0.246"
"Practice","3","object_01","object_05","312","5","j","617","5","1","object_08","1","3300","0","5","8","library_6","2","memory-2step-stake-s","385","3536256","0.0-18.0-0.1-0.247"
"Practice","2","object_06","object_02","328","4","j","302","7","2","object_07","5","3335","0","4","7","forest_8","2","memory-2step-stake-s","386","3546085","0.0-18.0-0.1-0.248"
"Practice","3","object_05","object_01","684","6","j","1019","7","2","object_07","1","3342","0","7","7","library_5","2","memory-2step-stake-s","387","3556584","0.0-18.0-0.1-0.249"
"Practice","4","object_04","object_09","407","8","j","1350","8","2","object_07","1","3350","0","4","8","restaurant_7","2","memory-2step-stake-s","388","3567564","0.0-18.0-0.1-0.250"
"Practice","1","object_03","object_10","403","1","j","448","2","1","object_08","5","3360","0","2","7","desert_6","2","memory-2step-stake-s","389","3576993","0.0-18.0-0.1-0.251"
"Practice","4","object_04","object_09","573","7","f","871","4","1","object_08","1","3364","0","4","8","restaurant_7","2","memory-2step-stake-s","390","3587063","0.0-18.0-0.1-0.252"
"Practice","1","object_03","object_10","519","1","j","492","2","1","object_08","5","3374","0","2","8","desert_1","2","memory-2step-stake-s","391","3596532","0.0-18.0-0.1-0.253"
"Practice","2","object_06","object_02","569","4","j","1241","8","2","object_07","5","3414","0","4","8","forest_2","2","memory-2step-stake-s","392","3607421","0.0-18.0-0.1-0.254"
"Practice","1","object_03","object_10","502","1","j","628","6","1","object_08","5","3444","0","6","4","desert_3","2","memory-2step-stake-s","393","3617470","0.0-18.0-0.1-0.255"
"8201","1","object_06","object_09","1549","2","f","1534","1","2","object_07","5","5","0","2","1","desert_6","2","memory-2step-stake-s","141","1077639","0.0-18.0-0.0-0.0"
"8201","1","object_09","object_06","2469","2","j","1061","0","2","object_07","5","5","0","3","0","desert_6","2","memory-2step-stake-s","142","1087439","0.0-18.0-0.0-0.1"
"8201","1","object_09","object_06","2643","2","j","1020","3","2","object_07","5","20","0","3","3","desert_3","2","memory-2step-stake-s","143","1097528","0.0-18.0-0.0-0.2"
"8201","4","object_03","object_02","1953","7","f","1291","1","1","object_04","1","21","0","1","2","restaurant_6","2","memory-2step-stake-s","144","1107697","0.0-18.0-0.0-0.3"
"8201","4","object_03","object_02","2976","8","j","867","1","2","object_07","1","22","0","6","1","restaurant_2","2","memory-2step-stake-s","145","1117416","0.0-18.0-0.0-0.4"
"8201","4","object_02","object_03","-1","-1","-1","-1","0","-","0","1","22","0","7","3","restaurant_5","2","memory-2step-stake-s","146","1125465","0.0-18.0-0.0-0.5"
"8201","1","object_09","object_06","-1","-1","-1","-1","0","-","0","5","22","0","9","5","desert_8","2","memory-2step-stake-s","147","1133515","0.0-18.0-0.0-0.6"
"8201","2","object_01","object_08","-1","-1","-1","-1","0","-","0","5","22","0","9","6","forest_5","2","memory-2step-stake-s","148","1141554","0.0-18.0-0.0-0.7"
"8201","1","object_09","object_06","-1","-1","-1","-1","0","-","0","5","22","0","8","5","desert_8","2","memory-2step-stake-s","149","1149614","0.0-18.0-0.0-0.8"
"8201","3","object_10","object_05","-1","-1","-1","-1","0","-","0","1","22","0","9","7","library_2","2","memory-2step-stake-s","150","1157653","0.0-18.0-0.0-0.9"
"8201","4","object_02","object_03","879","8","f","736","4","2","object_07","1","26","0","9","4","restaurant_6","2","memory-2step-stake-s","151","1167583","0.0-18.0-0.0-0.10"
"8201","4","object_02","object_03","1069","7","j","645","6","1","object_04","1","32","0","6","6","restaurant_5","2","memory-2step-stake-s","152","1177632","0.0-18.0-0.0-0.11"
"8201","1","object_06","object_09","1245","1","j","566","5","1","object_04","1","37","0","5","6","desert_3","2","memory-2step-stake-s","153","1187471","0.0-18.0-0.0-0.12"
"8201","1","object_09","object_06","1252","1","f","543","4","1","object_04","1","41","0","4","7","desert_1","2","memory-2step-stake-s","154","1197180","0.0-18.0-0.0-0.13"
"8201","4","object_02","object_03","854","7","j","590","4","1","object_04","1","45","0","4","8","restaurant_6","2","memory-2step-stake-s","155","1206950","0.0-18.0-0.0-0.14"
"8201","2","object_01","object_08","1075","4","f","645","6","2","object_07","5","75","0","4","6","forest_6","2","memory-2step-stake-s","156","1216969","0.0-18.0-0.0-0.15"
"8201","3","object_05","object_10","1119","6","j","513","6","2","object_07","5","105","0","2","6","library_7","2","memory-2step-stake-s","157","1226878","0.0-18.0-0.0-0.16"
"8201","1","object_09","object_06","1617","1","f","561","2","1","object_04","5","115","0","2","6","desert_6","2","memory-2step-stake-s","158","1236388","0.0-18.0-0.0-0.17"
"8201","4","object_03","object_02","676","8","j","524","5","2","object_07","1","120","0","0","5","restaurant_2","2","memory-2step-stake-s","159","1246187","0.0-18.0-0.0-0.18"
"8201","3","object_10","object_05","916","6","f","572","5","2","object_07","1","125","0","1","5","library_2","2","memory-2step-stake-s","160","1256037","0.0-18.0-0.0-0.19"
"8201","3","object_05","object_10","1186","5","f","658","1","1","object_04","1","126","0","1","4","library_7","2","memory-2step-stake-s","161","1265546","0.0-18.0-0.0-0.20"
"8201","1","object_06","object_09","1036","2","f","847","5","2","object_07","5","151","0","1","5","desert_1","2","memory-2step-stake-s","162","1275655","0.0-18.0-0.0-0.21"
"8201","3","object_10","object_05","1559","6","f","433","8","2","object_07","1","159","0","4","8","library_5","2","memory-2step-stake-s","163","1285704","0.0-18.0-0.0-0.22"
"8201","4","object_03","object_02","1108","8","j","532","5","2","object_07","1","164","0","5","5","restaurant_2","2","memory-2step-stake-s","164","1295544","0.0-18.0-0.0-0.23"
"8201","4","object_03","object_02","819","7","f","533","6","1","object_04","1","170","0","6","6","restaurant_6","2","memory-2step-stake-s","165","1305473","0.0-18.0-0.0-0.24"
"8201","2","object_08","object_01","1225","3","f","659","5","1","object_04","5","195","0","5","7","forest_5","2","memory-2step-stake-s","166","1315404","0.0-18.0-0.0-0.25"
"8201","4","object_03","object_02","1350","8","j","408","8","2","object_07","1","203","0","3","8","restaurant_2","2","memory-2step-stake-s","167","1325363","0.0-18.0-0.0-0.26"
"8201","4","object_02","object_03","1398","8","f","495","6","2","object_07","1","209","0","2","6","restaurant_2","2","memory-2step-stake-s","168","1335232","0.0-18.0-0.0-0.27"
"8201","2","object_08","object_01","1433","3","f","617","4","1","object_04","5","229","0","4","5","forest_3","2","memory-2step-stake-s","169","1345011","0.0-18.0-0.0-0.28"
"8201","4","object_03","object_02","1397","7","f","509","3","1","object_04","1","232","0","3","3","restaurant_5","2","memory-2step-stake-s","170","1354601","0.0-18.0-0.0-0.29"
